rt,coherent_direction,coherence,age,gender,resp_confidence,rt_confidence,condition,direction,coherence_level,trial,phase,sub,coh,cor,cj
1.79311500000767,180,0.5,19,V,-1,-1,,left,0.5,1,training_1,101,0.5,1,-1
0.616920000000391,0,0.5,19,V,-1,-1,,right,0.5,2,training_1,101,0.5,1,-1
0.582389999995939,0,0.5,19,V,-1,-1,,right,0.5,3,training_1,101,0.5,1,-1
0.5144650000002,0,0.5,19,V,-1,-1,,right,0.5,4,training_1,101,0.5,1,-1
0.520720000000438,180,0.5,19,V,-1,-1,,left,0.5,5,training_1,101,0.5,1,-1
0.58408000000054,0,0.5,19,V,-1,-1,,right,0.5,6,training_1,101,0.5,1,-1
3.32054999998945,180,0.5,19,V,-1,-1,,left,0.5,7,training_1,101,0.5,1,-1
0.792310000004363,180,0.5,19,V,-1,-1,,left,0.5,8,training_1,101,0.5,0,-1
2.04175499999837,180,0.5,19,V,-1,-1,,left,0.5,9,training_1,101,0.5,1,-1
0.759900000004563,0,0.5,19,V,-1,-1,,right,0.5,10,training_1,101,0.5,1,-1
0.842105000003357,180,0.5,19,V,-1,-1,,left,0.5,11,training_1,101,0.5,0,-1
0.67027999999118,0,0.5,19,V,-1,-1,,right,0.5,12,training_1,101,0.5,1,-1
0.452720000001136,180,0.5,19,V,-1,-1,,left,0.5,13,training_1,101,0.5,1,-1
0.836374999998952,180,0.5,19,V,-1,-1,,left,0.5,14,training_1,101,0.5,1,-1
0.690795000002254,0,0.5,19,V,-1,-1,,right,0.5,15,training_1,101,0.5,1,-1
0.670364999998128,180,0.5,19,V,-1,-1,,left,0.5,16,training_1,101,0.5,1,-1
0.447729999999865,0,0.5,19,V,-1,-1,,right,0.5,17,training_1,101,0.5,1,-1
0.502269999997225,0,0.5,19,V,-1,-1,,right,0.5,18,training_1,101,0.5,1,-1
0.625769999998738,180,0.5,19,V,-1,-1,,left,0.5,19,training_1,101,0.5,0,-1
0.492895000003045,0,0.5,19,V,-1,-1,,right,0.5,20,training_1,101,0.5,1,-1
0.439945000005537,0,0.5,19,V,-1,-1,,right,0.5,21,training_1,101,0.5,1,-1
0.618759999997565,180,0.5,19,V,-1,-1,,left,0.5,22,training_1,101,0.5,1,-1
0.785789999994449,180,0.5,19,V,-1,-1,,left,0.5,23,training_1,101,0.5,0,-1
0.489654999997583,0,0.5,19,V,-1,-1,,right,0.5,24,training_1,101,0.5,1,-1
0.471319999996922,0,0.5,19,V,-1,-1,,right,0.5,1,training_1,101,0.5,1,-1
0.470344999994268,180,0.5,19,V,-1,-1,,left,0.5,2,training_1,101,0.5,1,-1
0.385500000003958,0,0.5,19,V,-1,-1,,right,0.5,3,training_1,101,0.5,1,-1
0.391965000002529,0,0.5,19,V,-1,-1,,right,0.5,4,training_1,101,0.5,1,-1
0.480454999997164,0,0.5,19,V,-1,-1,,right,0.5,5,training_1,101,0.5,1,-1
0.37282000000414,0,0.5,19,V,-1,-1,,right,0.5,6,training_1,101,0.5,1,-1
0.501629999998841,180,0.5,19,V,-1,-1,,left,0.5,7,training_1,101,0.5,1,-1
0.358455000008689,180,0.5,19,V,-1,-1,,left,0.5,8,training_1,101,0.5,0,-1
0.52096999999776,180,0.5,19,V,-1,-1,,left,0.5,9,training_1,101,0.5,0,-1
0.507234999997308,0,0.5,19,V,-1,-1,,right,0.5,10,training_1,101,0.5,1,-1
0.556360000002314,180,0.5,19,V,-1,-1,,left,0.5,11,training_1,101,0.5,0,-1
0.594075000000885,180,0.5,19,V,-1,-1,,left,0.5,12,training_1,101,0.5,0,-1
2.74352499999804,180,0.5,19,V,-1,-1,,left,0.5,13,training_1,101,0.5,1,-1
0.450394999992568,0,0.5,19,V,-1,-1,,right,0.5,14,training_1,101,0.5,1,-1
0.433690000005299,180,0.5,19,V,-1,-1,,left,0.5,15,training_1,101,0.5,1,-1
0.400560000009136,0,0.5,19,V,-1,-1,,right,0.5,16,training_1,101,0.5,1,-1
0.677530000000843,0,0.5,19,V,-1,-1,,right,0.5,17,training_1,101,0.5,1,-1
0.359964999996009,180,0.5,19,V,-1,-1,,left,0.5,18,training_1,101,0.5,0,-1
2.19427500000165,180,0.5,19,V,-1,-1,,left,0.5,19,training_1,101,0.5,1,-1
0.49833000000217,180,0.5,19,V,-1,-1,,left,0.5,20,training_1,101,0.5,1,-1
0.684789999999339,0,0.5,19,V,-1,-1,,right,0.5,21,training_1,101,0.5,1,-1
0.639210000008461,180,0.5,19,V,-1,-1,,left,0.5,22,training_1,101,0.5,1,-1
0.419300000008661,0,0.5,19,V,-1,-1,,right,0.5,23,training_1,101,0.5,1,-1
0.426785000003292,0,0.5,19,V,-1,-1,,right,0.5,24,training_1,101,0.5,1,-1
0.396695000003092,180,0.5,19,V,-1,-1,,left,0.5,1,training_1,101,0.5,1,-1
0.375769999998738,180,0.5,19,V,-1,-1,,left,0.5,2,training_1,101,0.5,0,-1
0.398054999997839,0,0.5,19,V,-1,-1,,right,0.5,3,training_1,101,0.5,1,-1
0.487394999989192,180,0.5,19,V,-1,-1,,left,0.5,4,training_1,101,0.5,1,-1
0.393885000012233,0,0.5,19,V,-1,-1,,right,0.5,5,training_1,101,0.5,1,-1
0.4195550000004,0,0.5,19,V,-1,-1,,right,0.5,6,training_1,101,0.5,1,-1
0.652450000008685,180,0.5,19,V,-1,-1,,left,0.5,7,training_1,101,0.5,1,-1
0.443125000005239,0,0.5,19,V,-1,-1,,right,0.5,8,training_1,101,0.5,1,-1
0.70969000000332,0,0.5,19,V,-1,-1,,right,0.5,9,training_1,101,0.5,1,-1
0.486250000001746,0,0.5,19,V,-1,-1,,right,0.5,10,training_1,101,0.5,1,-1
0.446985000002314,180,0.5,19,V,-1,-1,,left,0.5,11,training_1,101,0.5,1,-1
0.455415000003995,180,0.5,19,V,-1,-1,,left,0.5,12,training_1,101,0.5,1,-1
0.482304999997723,180,0.5,19,V,-1,-1,,left,0.5,13,training_1,101,0.5,1,-1
0.433115000007092,180,0.5,19,V,-1,-1,,left,0.5,14,training_1,101,0.5,1,-1
0.393734999990556,0,0.5,19,V,-1,-1,,right,0.5,15,training_1,101,0.5,1,-1
0.446465000000899,180,0.5,19,V,-1,-1,,left,0.5,16,training_1,101,0.5,1,-1
0.395864999998594,180,0.5,19,V,-1,-1,,left,0.5,17,training_1,101,0.5,1,-1
0.403810000003432,0,0.5,19,V,-1,-1,,right,0.5,18,training_1,101,0.5,1,-1
0.569749999995111,0,0.5,19,V,-1,-1,,right,0.5,19,training_1,101,0.5,1,-1
0.434819999994943,180,0.5,19,V,-1,-1,,left,0.5,20,training_1,101,0.5,1,-1
0.474555000007967,0,0.5,19,V,-1,-1,,right,0.5,21,training_1,101,0.5,1,-1
0.435389999998733,0,0.5,19,V,-1,-1,,right,0.5,22,training_1,101,0.5,1,-1
0.538654999996652,180,0.5,19,V,-1,-1,,left,0.5,23,training_1,101,0.5,1,-1
0.509269999995013,0,0.5,19,V,-1,-1,,right,0.5,24,training_1,101,0.5,1,-1
1.21977500000503,180,0.2,19,V,-1,-1,,left,0.2,1,training_2,101,0.2,1,-1
0.494324999992386,0,0.2,19,V,-1,-1,,right,0.2,2,training_2,101,0.2,1,-1
0.500459999995655,180,0.2,19,V,-1,-1,,left,0.2,3,training_2,101,0.2,1,-1
0.625455000001239,180,0.2,19,V,-1,-1,,left,0.2,4,training_2,101,0.2,0,-1
1.05339499999536,180,0.2,19,V,-1,-1,,left,0.2,5,training_2,101,0.2,1,-1
0.536215000000084,0,0.2,19,V,-1,-1,,right,0.2,6,training_2,101,0.2,1,-1
0.52372500000638,0,0.2,19,V,-1,-1,,right,0.2,7,training_2,101,0.2,1,-1
0.488249999994878,0,0.2,19,V,-1,-1,,right,0.2,8,training_2,101,0.2,1,-1
0.462455000000773,0,0.2,19,V,-1,-1,,right,0.2,9,training_2,101,0.2,1,-1
0.681365000011283,180,0.2,19,V,-1,-1,,left,0.2,10,training_2,101,0.2,1,-1
0.495965000009164,0,0.2,19,V,-1,-1,,right,0.2,11,training_2,101,0.2,1,-1
0.56916500000807,180,0.2,19,V,-1,-1,,left,0.2,12,training_2,101,0.2,0,-1
0.997245000005933,180,0.2,19,V,-1,-1,,left,0.2,13,training_2,101,0.2,1,-1
0.887760000012349,180,0.2,19,V,-1,-1,,left,0.2,14,training_2,101,0.2,1,-1
0.426430000006803,0,0.2,19,V,-1,-1,,right,0.2,15,training_2,101,0.2,1,-1
0.737299999993411,180,0.2,19,V,-1,-1,,left,0.2,16,training_2,101,0.2,1,-1
0.874544999998761,0,0.2,19,V,-1,-1,,right,0.2,17,training_2,101,0.2,1,-1
0.44451499999559,0,0.2,19,V,-1,-1,,right,0.2,18,training_2,101,0.2,1,-1
0.429954999999609,180,0.2,19,V,-1,-1,,left,0.2,19,training_2,101,0.2,1,-1
0.49400500000047,180,0.2,19,V,-1,-1,,left,0.2,20,training_2,101,0.2,1,-1
0.748560000007274,180,0.2,19,V,-1,-1,,left,0.2,21,training_2,101,0.2,1,-1
0.42415500000061,0,0.2,19,V,-1,-1,,right,0.2,22,training_2,101,0.2,1,-1
0.395015000001877,0,0.2,19,V,-1,-1,,right,0.2,23,training_2,101,0.2,0,-1
0.537974999999278,0,0.2,19,V,-1,-1,,right,0.2,24,training_2,101,0.2,1,-1
3.49389500000689,180,0.2,19,V,4,4710.66499999142,,left,0.2,1,training_3,101,0.2,0,4
1.99676000000909,0,0.2,19,V,5,2813.3300000045,,right,0.2,2,training_3,101,0.2,1,5
1.42347999999765,0,0.2,19,V,6,1856.60500000813,,right,0.2,3,training_3,101,0.2,1,6
1.34116999999969,0,0.2,19,V,5,1124.01499999396,,right,0.2,4,training_3,101,0.2,1,5
0.916870000000927,180,0.2,19,V,6,662.499999991269,,left,0.2,5,training_3,101,0.2,0,6
1.55182500000228,0,0.2,19,V,4,497.065000003204,,right,0.2,6,training_3,101,0.2,1,4
1.70107999999891,0,0.2,19,V,4,917.419999997946,,right,0.2,7,training_3,101,0.2,1,4
1.23734500000137,180,0.2,19,V,2,1017.47500000056,,left,0.2,8,training_3,101,0.2,1,2
0.872980000000098,180,0.2,19,V,6,862.175000002026,,left,0.2,9,training_3,101,0.2,0,6
0.995880000002217,0,0.2,19,V,6,514.379999993253,,right,0.2,10,training_3,101,0.2,1,6
1.25270499999169,180,0.2,19,V,2,813.609999997425,,left,0.2,11,training_3,101,0.2,1,2
1.70952999999281,180,0.2,19,V,6,9271.59000000393,,left,0.2,12,training_3,101,0.2,0,6
1.05628499999875,180,0.2,19,V,6,2261.68000001053,,left,0.2,13,training_3,101,0.2,1,6
1.11897999999928,0,0.2,19,V,6,497.275000001537,,right,0.2,14,training_3,101,0.2,1,6
0.739175000009709,180,0.2,19,V,6,540.830000012647,,left,0.2,15,training_3,101,0.2,1,6
0.78614500000549,0,0.2,19,V,6,384.319999997388,,right,0.2,16,training_3,101,0.2,1,6
0.754159999996773,0,0.2,19,V,5,692.620000001625,,right,0.2,17,training_3,101,0.2,1,5
1.39069999998901,0,0.2,19,V,6,459.909999990487,,right,0.2,18,training_3,101,0.2,1,6
1.71048500000325,0,0.2,19,V,5,1283.88999999152,,right,0.2,19,training_3,101,0.2,1,5
1.49292999999307,180,0.2,19,V,5,1136.38000001083,,left,0.2,20,training_3,101,0.2,1,5
0.667195000001811,180,0.2,19,V,6,467.445000002044,,left,0.2,21,training_3,101,0.2,0,6
1.40583999999217,180,0.2,19,V,5,626.129999989644,,left,0.2,22,training_3,101,0.2,0,5
0.966840000008233,0,0.2,19,V,5,740.675000008196,,right,0.2,23,training_3,101,0.2,1,5
0.720824999996694,180,0.2,19,V,5,738.550000009127,,left,0.2,24,training_3,101,0.2,1,5
1.90791999999783,180,0.2,19,V,2,2161.71999998915,accuracy,left,0.2,1,experimental,101,0.2,1,2
1.53947000000335,0,0.2,19,V,5,1250.58500000159,accuracy,right,0.2,2,experimental,101,0.2,1,5
1.27221999999892,180,0.2,19,V,2,1498.80499999563,accuracy,left,0.2,3,experimental,101,0.2,1,2
0.934445000006235,0,0.2,19,V,5,593.124999999418,accuracy,right,0.2,4,experimental,101,0.2,1,5
0.823040000002948,180,0.2,19,V,4,1455.13999999093,accuracy,left,0.2,5,experimental,101,0.2,1,4
1.17647000000579,0,0.2,19,V,5,410.47499999695,accuracy,right,0.2,6,experimental,101,0.2,1,5
1.53235999999742,0,0.2,19,V,4,1902.43000000191,accuracy,right,0.2,7,experimental,101,0.2,1,4
1.13646999999764,180,0.2,19,V,5,355.70000000007,accuracy,left,0.2,8,experimental,101,0.2,0,5
0.761180000001332,180,0.2,19,V,1,515.190000005532,accuracy,left,0.2,9,experimental,101,0.2,1,1
0.945070000001579,0,0.2,19,V,6,373.944999999367,accuracy,right,0.2,10,experimental,101,0.2,1,6
1.58477999999013,180,0.2,19,V,5,392.559999992955,accuracy,left,0.2,11,experimental,101,0.2,0,5
0.814224999994622,0,0.2,19,V,6,1009.31499998842,accuracy,right,0.2,12,experimental,101,0.2,1,6
1.46482500000275,180,0.2,19,V,6,943.424999990384,accuracy,left,0.2,13,experimental,101,0.2,1,6
1.03628000000026,180,0.2,19,V,4,879.029999996419,accuracy,left,0.2,14,experimental,101,0.2,1,4
1.11742999999842,180,0.2,19,V,5,498.56500000169,accuracy,left,0.2,15,experimental,101,0.2,1,5
0.770785000000615,0,0.2,19,V,6,423.160000005737,accuracy,right,0.2,16,experimental,101,0.2,1,6
1.11405999999261,180,0.2,19,V,6,591.455000001588,accuracy,left,0.2,17,experimental,101,0.2,0,6
0.70333999999275,180,0.2,19,V,6,608.42999999295,accuracy,left,0.2,18,experimental,101,0.2,1,6
0.688829999999143,0,0.2,19,V,6,454.41999999457,accuracy,right,0.2,19,experimental,101,0.2,1,6
0.95730999999796,0,0.2,19,V,6,422.005000000354,accuracy,right,0.2,20,experimental,101,0.2,0,6
0.892240000001038,0,0.2,19,V,6,360.589999996591,accuracy,right,0.2,21,experimental,101,0.2,1,6
1.88542000000598,0,0.2,19,V,4,853.690000003553,accuracy,right,0.2,22,experimental,101,0.2,1,4
0.69907499999681,180,0.2,19,V,6,360.165000005509,accuracy,left,0.2,23,experimental,101,0.2,1,6
0.869765000010375,0,0.2,19,V,6,348.429999998189,accuracy,right,0.2,24,experimental,101,0.2,0,6
0.709134999997332,180,0.2,19,V,6,293.04500001308,accuracy,left,0.2,25,experimental,101,0.2,1,6
3.17556499999773,0,0.2,19,V,6,384.665000005043,accuracy,right,0.2,26,experimental,101,0.2,1,6
0.83718499999668,0,0.2,19,V,4,664.040000003297,accuracy,right,0.2,27,experimental,101,0.2,0,4
2.35830499998701,0,0.2,19,V,4,817.255000001751,accuracy,right,0.2,28,experimental,101,0.2,0,4
1.8408000000054,0,0.2,19,V,5,235.249999997905,accuracy,right,0.2,29,experimental,101,0.2,0,5
1.28273500000068,0,0.2,19,V,5,432.270000004792,accuracy,right,0.2,30,experimental,101,0.2,0,5
2.09347000000707,0,0.2,19,V,3,353.029999998398,accuracy,right,0.2,31,experimental,101,0.2,0,3
2.58750999999756,180,0.2,19,V,2,833.824999994249,accuracy,left,0.2,32,experimental,101,0.2,0,2
2.77771999999823,180,0.2,19,V,2,465.525000006892,accuracy,left,0.2,33,experimental,101,0.2,1,2
1.61595500000112,180,0.2,19,V,5,381.695000003674,accuracy,left,0.2,34,experimental,101,0.2,0,5
1.16406500000448,180,0.2,19,V,4,459.925000002841,accuracy,left,0.2,35,experimental,101,0.2,0,4
1.69641000000411,180,0.2,19,V,2,372.214999995776,accuracy,left,0.2,36,experimental,101,0.2,1,2
2.10665999999037,0,0.2,19,V,1,1382.29000000865,accuracy,right,0.2,37,experimental,101,0.2,0,1
1.84831000000122,180,0.2,19,V,3,431.990000011865,accuracy,left,0.2,38,experimental,101,0.2,1,3
1.29926500000875,180,0.2,19,V,4,961.2599999964,accuracy,left,0.2,39,experimental,101,0.2,1,4
4.83697499999835,180,0.2,19,V,4,406.130000003031,accuracy,left,0.2,40,experimental,101,0.2,0,4
1.10236499999883,180,0.2,19,V,2,596.940000003087,accuracy,left,0.2,41,experimental,101,0.2,1,2
1.68997500000114,0,0.2,19,V,4,735.155000002123,accuracy,right,0.2,42,experimental,101,0.2,0,4
2.98065500000666,180,0.2,19,V,4,437.934999994468,accuracy,left,0.2,43,experimental,101,0.2,1,4
1.26774500000465,0,0.2,19,V,3,419.175000002724,accuracy,right,0.2,44,experimental,101,0.2,0,3
1.70204000000376,0,0.2,19,V,4,384.024999992107,accuracy,right,0.2,45,experimental,101,0.2,1,4
2.03233499999624,0,0.2,19,V,4,614.235000000917,accuracy,right,0.2,46,experimental,101,0.2,0,4
1.07518499999424,0,0.2,19,V,4,414.835000003222,accuracy,right,0.2,47,experimental,101,0.2,0,4
2.02160000000731,180,0.2,19,V,4,548.439999998664,accuracy,left,0.2,48,experimental,101,0.2,1,4
1.53467500000261,180,0.2,19,V,3,578.730000008363,accuracy,left,0.2,49,experimental,101,0.2,1,3
0.698750000010477,0,0.2,19,V,3,379.619999992428,accuracy,right,0.2,50,experimental,101,0.2,0,3
1.15683000000718,180,0.2,19,V,3,395.499999998719,accuracy,left,0.2,51,experimental,101,0.2,1,3
1.53010999999242,0,0.2,19,V,4,314.999999987776,accuracy,right,0.2,52,experimental,101,0.2,1,4
2.83946000000287,180,0.2,19,V,4,304.270000007818,accuracy,left,0.2,53,experimental,101,0.2,1,4
1.13938500000222,0,0.2,19,V,5,2037.27000000072,accuracy,right,0.2,54,experimental,101,0.2,1,5
1.38033499999437,0,0.2,19,V,5,1087.7049999981,accuracy,right,0.2,55,experimental,101,0.2,0,5
1.3617249999952,180,0.2,19,V,6,1180.18999999913,accuracy,left,0.2,56,experimental,101,0.2,1,6
2.61323499999708,180,0.2,19,V,5,599.770000000717,accuracy,left,0.2,57,experimental,101,0.2,1,5
0.954759999993257,0,0.2,19,V,5,1350.53500000504,accuracy,right,0.2,58,experimental,101,0.2,1,5
1.3153350000066,0,0.2,19,V,5,334.795000002487,accuracy,right,0.2,59,experimental,101,0.2,0,5
1.55894499999704,180,0.2,19,V,3,460.904999999912,accuracy,left,0.2,60,experimental,101,0.2,1,3
1.1768149999989,180,0.2,19,V,5,993.300000001909,speed,left,0.2,1,experimental,101,0.2,1,5
1.26797000000079,180,0.2,19,V,5,2597.83500000776,speed,left,0.2,2,experimental,101,0.2,1,5
1.59269000000495,180,0.2,19,V,5,2477.25000001083,speed,left,0.2,3,experimental,101,0.2,1,5
1.13541000000259,0,0.2,19,V,5,481.375000003027,speed,right,0.2,4,experimental,101,0.2,1,5
0.651610000000801,180,0.2,19,V,5,332.815000001574,speed,left,0.2,5,experimental,101,0.2,1,5
0.503024999998161,0,0.2,19,V,5,331.79999999993,speed,right,0.2,6,experimental,101,0.2,1,5
1.06107500000508,0,0.2,19,V,5,282.265000001644,speed,right,0.2,7,experimental,101,0.2,1,5
0.813145000007353,0,0.2,19,V,6,269.605000008596,speed,right,0.2,8,experimental,101,0.2,1,6
1.1045199999935,0,0.2,19,V,6,336.960000000545,speed,right,0.2,9,experimental,101,0.2,1,6
0.59003500000108,180,0.2,19,V,3,638.399999996182,speed,left,0.2,10,experimental,101,0.2,1,3
0.620419999992009,0,0.2,19,V,5,277.864999996382,speed,right,0.2,11,experimental,101,0.2,1,5
0.71218499999668,180,0.2,19,V,6,828.924999994342,speed,left,0.2,12,experimental,101,0.2,1,6
0.656499999997322,0,0.2,19,V,5,303.444999997737,speed,right,0.2,13,experimental,101,0.2,1,5
0.64068500000576,180,0.2,19,V,5,253.924999997253,speed,left,0.2,14,experimental,101,0.2,1,5
0.854204999996,180,0.2,19,V,5,317.239999989397,speed,left,0.2,15,experimental,101,0.2,1,5
1.38733500000671,180,0.2,19,V,5,337.205000003451,speed,left,0.2,16,experimental,101,0.2,0,5
0.68225500000699,0,0.2,19,V,4,429.77499999688,speed,right,0.2,17,experimental,101,0.2,1,4
0.652999999991152,0,0.2,19,V,5,352.815000005648,speed,right,0.2,18,experimental,101,0.2,1,5
0.862784999990254,180,0.2,19,V,3,313.974999997299,speed,left,0.2,19,experimental,101,0.2,1,3
0.656629999997676,0,0.2,19,V,5,304.910000006203,speed,right,0.2,20,experimental,101,0.2,1,5
0.68027000001166,180,0.2,19,V,6,422.194999991916,speed,left,0.2,21,experimental,101,0.2,1,6
0.568584999986342,0,0.2,19,V,6,1730.38000000815,speed,right,0.2,22,experimental,101,0.2,1,6
0.836664999995264,0,0.2,19,V,5,337.28500000143,speed,right,0.2,23,experimental,101,0.2,1,5
0.676164999997127,180,0.2,19,V,5,325.510000009672,speed,left,0.2,24,experimental,101,0.2,1,5
0.726769999993849,180,0.2,19,V,6,374.855000001844,speed,left,0.2,25,experimental,101,0.2,1,6
1.81066999999166,180,0.2,19,V,4,423.015000007581,speed,left,0.2,26,experimental,101,0.2,0,4
0.749209999994491,180,0.2,19,V,6,274.699999994482,speed,left,0.2,27,experimental,101,0.2,1,6
0.833725000004051,0,0.2,19,V,4,372.27000000712,speed,right,0.2,28,experimental,101,0.2,1,4
0.851204999999027,0,0.2,19,V,5,335.00500000082,speed,right,0.2,29,experimental,101,0.2,1,5
1.8263350000052,0,0.2,19,V,4,340.505000000121,speed,right,0.2,30,experimental,101,0.2,1,4
1.8143049999926,180,0.2,19,V,4,346.730000004754,speed,left,0.2,31,experimental,101,0.2,0,4
0.518539999990026,180,0.2,19,V,6,876.384999995935,speed,left,0.2,32,experimental,101,0.2,1,6
1.06774499999301,0,0.2,19,V,3,2525.59499999916,speed,right,0.2,33,experimental,101,0.2,1,3
0.90903999999864,0,0.2,19,V,4,347.950000010314,speed,right,0.2,34,experimental,101,0.2,0,4
1.42870499999844,0,0.2,19,V,5,314.385000005132,speed,right,0.2,35,experimental,101,0.2,0,5
0.784004999994067,180,0.2,19,V,6,217.210000002524,speed,left,0.2,36,experimental,101,0.2,1,6
0.897614999994403,0,0.2,19,V,4,345.809999998892,speed,right,0.2,37,experimental,101,0.2,1,4
0.70853000000352,0,0.2,19,V,5,321.550000007846,speed,right,0.2,38,experimental,101,0.2,1,5
0.728244999991148,0,0.2,19,V,5,304.969999997411,speed,right,0.2,39,experimental,101,0.2,1,5
1.26304999999411,0,0.2,19,V,3,1336.62999999069,speed,right,0.2,40,experimental,101,0.2,0,3
0.817764999999781,0,0.2,19,V,5,280.039999997825,speed,right,0.2,41,experimental,101,0.2,1,5
1.19441499999084,180,0.2,19,V,5,283.775000003516,speed,left,0.2,42,experimental,101,0.2,0,5
1.32651500000793,180,0.2,19,V,4,1510.33999999345,speed,left,0.2,43,experimental,101,0.2,0,4
0.54269000000204,180,0.2,19,V,5,265.050000001793,speed,left,0.2,44,experimental,101,0.2,1,5
0.630169999989448,180,0.2,19,V,3,210.070000000997,speed,left,0.2,45,experimental,101,0.2,1,3
0.760114999997313,180,0.2,19,V,3,378.209999995306,speed,left,0.2,46,experimental,101,0.2,1,3
1.14458999999624,0,0.2,19,V,5,299.050000001444,speed,right,0.2,47,experimental,101,0.2,1,5
0.829874999995809,180,0.2,19,V,4,901.404999996885,speed,left,0.2,48,experimental,101,0.2,1,4
1.24227000000246,0,0.2,19,V,6,345.18499999831,speed,right,0.2,49,experimental,101,0.2,1,6
1.3085749999882,180,0.2,19,V,5,222.355000005336,speed,left,0.2,50,experimental,101,0.2,1,5
0.81634999999369,0,0.2,19,V,6,210.574999990058,speed,right,0.2,51,experimental,101,0.2,0,6
1.08526500000153,0,0.2,19,V,6,643.599999995786,speed,right,0.2,52,experimental,101,0.2,0,6
1.14702000000398,180,0.2,19,V,5,465.544999999111,speed,left,0.2,53,experimental,101,0.2,1,5
0.672789999996894,180,0.2,19,V,5,268.840000004275,speed,left,0.2,54,experimental,101,0.2,1,5
1.09832499999902,180,0.2,19,V,6,375.814999992144,speed,left,0.2,55,experimental,101,0.2,1,6
1.04959499998949,180,0.2,19,V,5,295.375000001513,speed,left,0.2,56,experimental,101,0.2,1,5
2.02367999999842,0,0.2,19,V,5,340.345000004163,speed,right,0.2,57,experimental,101,0.2,1,5
1.01380499999505,0,0.2,19,V,5,280.744999996386,speed,right,0.2,58,experimental,101,0.2,1,5
1.18469000000914,0,0.2,19,V,5,292.009999990114,speed,right,0.2,59,experimental,101,0.2,1,5
1.00098500000604,180,0.2,19,V,4,1223.84000000602,speed,left,0.2,60,experimental,101,0.2,1,4
1.10966499999631,0,0.2,19,V,4,552.134999990813,accuracy,right,0.2,1,experimental,101,0.2,1,4
1.01341500000854,180,0.2,19,V,3,405.330000008689,accuracy,left,0.2,2,experimental,101,0.2,1,3
0.564469999997527,0,0.2,19,V,5,332.739999998012,accuracy,right,0.2,3,experimental,101,0.2,1,5
0.535055000000284,180,0.2,19,V,3,293.544999993173,accuracy,left,0.2,4,experimental,101,0.2,1,3
1.70981499999471,180,0.2,19,V,3,1711.175000004,accuracy,left,0.2,5,experimental,101,0.2,1,3
0.530845000001136,0,0.2,19,V,5,303.564999994705,accuracy,right,0.2,6,experimental,101,0.2,1,5
0.788839999993797,180,0.2,19,V,6,261.259999999311,accuracy,left,0.2,7,experimental,101,0.2,1,6
0.579854999989038,0,0.2,19,V,6,311.27999999444,accuracy,right,0.2,8,experimental,101,0.2,1,6
0.625520000001416,0,0.2,19,V,6,351.769999993849,accuracy,right,0.2,9,experimental,101,0.2,1,6
0.77274000000034,0,0.2,19,V,5,627.559999993537,accuracy,right,0.2,10,experimental,101,0.2,1,5
0.484850000008009,180,0.2,19,V,5,288.449999992736,accuracy,left,0.2,11,experimental,101,0.2,1,5
0.485610000003362,180,0.2,19,V,5,232.179999991786,accuracy,left,0.2,12,experimental,101,0.2,1,5
1.04709500000172,0,0.2,19,V,5,249.769999994896,accuracy,right,0.2,13,experimental,101,0.2,1,5
0.805140000011306,0,0.2,19,V,4,307.070000009844,accuracy,right,0.2,14,experimental,101,0.2,1,4
1.51036999998905,180,0.2,19,V,6,305.975000010221,accuracy,left,0.2,15,experimental,101,0.2,0,6
1.95844499999657,180,0.2,19,V,4,404.819999996107,accuracy,left,0.2,16,experimental,101,0.2,0,4
1.47868500000914,180,0.2,19,V,5,191.064999991795,accuracy,left,0.2,17,experimental,101,0.2,1,5
1.67487499999697,180,0.2,19,V,3,1449.25499999954,accuracy,left,0.2,18,experimental,101,0.2,1,3
0.680204999996931,180,0.2,19,V,5,344.205000001239,accuracy,left,0.2,19,experimental,101,0.2,0,5
0.619155000007595,0,0.2,19,V,4,338.264999998501,accuracy,right,0.2,20,experimental,101,0.2,1,4
0.767674999995506,0,0.2,19,V,6,309.469999992871,accuracy,right,0.2,21,experimental,101,0.2,1,6
0.797440000009374,0,0.2,19,V,6,281.260000003385,accuracy,right,0.2,22,experimental,101,0.2,0,6
2.12229499999376,0,0.2,19,V,6,281.140000006417,accuracy,right,0.2,23,experimental,101,0.2,0,6
0.835135000001173,180,0.2,19,V,6,1105.32000000239,accuracy,left,0.2,24,experimental,101,0.2,1,6
0.524330000000191,0,0.2,19,V,6,288.719999996829,accuracy,right,0.2,25,experimental,101,0.2,1,6
0.721750000011525,180,0.2,19,V,6,245.685000001686,accuracy,left,0.2,26,experimental,101,0.2,1,6
0.416614999994636,0,0.2,19,V,6,265.444999997271,accuracy,right,0.2,27,experimental,101,0.2,1,6
0.683955000000424,0,0.2,19,V,6,251.810000001569,accuracy,right,0.2,28,experimental,101,0.2,1,6
1.97397500000079,180,0.2,19,V,6,232.47000000265,accuracy,left,0.2,29,experimental,101,0.2,1,6
0.674144999997225,180,0.2,19,V,6,212.704999998095,accuracy,left,0.2,30,experimental,101,0.2,1,6
0.842670000012731,0,0.2,19,V,6,227.044999992358,accuracy,right,0.2,31,experimental,101,0.2,1,6
0.724654999998165,0,0.2,19,V,6,343.949999994948,accuracy,right,0.2,32,experimental,101,0.2,1,6
0.656195000003208,0,0.2,19,V,6,326.9650000002,accuracy,right,0.2,33,experimental,101,0.2,1,6
0.879189999992377,180,0.2,19,V,6,1840.89000000677,accuracy,left,0.2,34,experimental,101,0.2,1,6
0.825850000008359,180,0.2,19,V,6,229.475000000093,accuracy,left,0.2,35,experimental,101,0.2,1,6
0.510135000004084,180,0.2,19,V,6,178.71500000183,accuracy,left,0.2,36,experimental,101,0.2,1,6
0.310800000006566,0,0.2,19,V,6,202.409999998054,accuracy,right,0.2,37,experimental,101,0.2,0,6
0.929754999990109,0,0.2,19,V,6,377.120000004652,accuracy,right,0.2,38,experimental,101,0.2,0,6
1.24049500000547,0,0.2,19,V,6,297.055000002729,accuracy,right,0.2,39,experimental,101,0.2,1,6
0.451434999995399,180,0.2,19,V,5,955.789999992703,accuracy,left,0.2,40,experimental,101,0.2,0,5
0.505745000002207,180,0.2,19,V,6,750.839999993332,accuracy,left,0.2,41,experimental,101,0.2,1,6
0.551735000000917,180,0.2,19,V,6,216.690000001108,accuracy,left,0.2,42,experimental,101,0.2,1,6
0.827990000005229,0,0.2,19,V,6,200.215000004391,accuracy,right,0.2,43,experimental,101,0.2,0,6
2.13191999999981,180,0.2,19,V,6,640.904999992927,accuracy,left,0.2,44,experimental,101,0.2,1,6
0.925805000006221,180,0.2,19,V,6,179.994999998598,accuracy,left,0.2,45,experimental,101,0.2,1,6
0.613555000003544,0,0.2,19,V,6,230.184999993071,accuracy,right,0.2,46,experimental,101,0.2,0,6
1.03483499999857,0,0.2,19,V,4,346.820000006119,accuracy,right,0.2,47,experimental,101,0.2,1,4
0.862599999993108,180,0.2,19,V,5,216.984999991837,accuracy,left,0.2,48,experimental,101,0.2,1,5
0.905484999995679,180,0.2,19,V,6,135.520000010729,accuracy,left,0.2,49,experimental,101,0.2,1,6
0.71925999999803,0,0.2,19,V,6,155.820000014501,accuracy,right,0.2,50,experimental,101,0.2,0,6
2.03369999999995,0,0.2,19,V,6,201.300000000629,accuracy,right,0.2,51,experimental,101,0.2,1,6
0.569919999994454,180,0.2,19,V,6,204.100000002654,accuracy,left,0.2,52,experimental,101,0.2,1,6
0.347074999997858,180,0.2,19,V,6,237.135000003036,accuracy,left,0.2,53,experimental,101,0.2,0,6
0.858334999997169,180,0.2,19,V,6,355.504999999539,accuracy,left,0.2,54,experimental,101,0.2,0,6
0.410705000002054,180,0.2,19,V,4,31976.7700000084,accuracy,left,0.2,55,experimental,101,0.2,1,4
1.1328349999967,0,0.2,19,V,5,1183.51499999699,accuracy,right,0.2,56,experimental,101,0.2,0,5
1.7406750000082,0,0.2,19,V,5,2005.09999999485,accuracy,right,0.2,57,experimental,101,0.2,0,5
0.663749999992433,180,0.2,19,V,5,225.610000008601,accuracy,left,0.2,58,experimental,101,0.2,1,5
0.908795000010286,0,0.2,19,V,5,251.014999987092,accuracy,right,0.2,59,experimental,101,0.2,1,5
0.788994999995339,0,0.2,19,V,5,238.059999988764,accuracy,right,0.2,60,experimental,101,0.2,1,5
1.63137499999721,180,0.2,19,V,4,408.519999996759,speed,left,0.2,1,experimental,101,0.2,0,4
0.752779999994673,0,0.2,19,V,4,744.590000001714,speed,right,0.2,2,experimental,101,0.2,1,4
0.786245000010356,180,0.2,19,V,5,2125.6500000013,speed,left,0.2,3,experimental,101,0.2,0,5
1.72469499999657,0,0.2,19,V,5,3827.09500000067,speed,right,0.2,4,experimental,101,0.2,1,5
0.862529999999329,0,0.2,19,V,4,753.490000002086,speed,right,0.2,5,experimental,101,0.2,1,4
0.654190000001341,0,0.2,19,V,5,547.160000002012,speed,right,0.2,6,experimental,101,0.2,1,5
0.615585000006482,0,0.2,19,V,5,539.040000003763,speed,right,0.2,7,experimental,101,0.2,1,5
0.651374999986961,180,0.2,19,V,2,876.510000001639,speed,left,0.2,8,experimental,101,0.2,1,2
0.610849999997765,180,0.2,19,V,5,609.049999998882,speed,left,0.2,9,experimental,101,0.2,0,5
2.86991499998793,180,0.2,19,V,6,761.89999999851,speed,left,0.2,10,experimental,101,0.2,0,6
0.905905000007711,0,0.2,19,V,5,438.695000004023,speed,right,0.2,11,experimental,101,0.2,1,5
0.978684999994002,180,0.2,19,V,5,806.344999989495,speed,left,0.2,12,experimental,101,0.2,1,5
0.52422999999579,180,0.2,19,V,5,395.814999996684,speed,left,0.2,13,experimental,101,0.2,0,5
1.38046999998856,180,0.2,19,V,5,388.015000004321,speed,left,0.2,14,experimental,101,0.2,1,5
0.926560000007041,0,0.2,19,V,5,446.490000002086,speed,right,0.2,15,experimental,101,0.2,1,5
0.698605000012554,0,0.2,19,V,5,396.9649999924,speed,right,0.2,16,experimental,101,0.2,1,5
1.77049999999814,0,0.2,19,V,5,320.315000004135,speed,right,0.2,17,experimental,101,0.2,1,5
0.837169999998994,180,0.2,19,V,5,314.640000011772,speed,left,0.2,18,experimental,101,0.2,0,5
0.610670000009239,180,0.2,19,V,6,583.994999993593,speed,left,0.2,19,experimental,101,0.2,0,6
0.758984999992885,180,0.2,19,V,4,424.069999992847,speed,left,0.2,20,experimental,101,0.2,0,4
1.84982999999169,0,0.2,19,V,5,284.820000001229,speed,right,0.2,21,experimental,101,0.2,1,5
2.51822000001278,180,0.2,19,V,5,312.099999994971,speed,left,0.2,22,experimental,101,0.2,1,5
1.52642500000447,0,0.2,19,V,5,298.884999996051,speed,right,0.2,23,experimental,101,0.2,0,5
0.509494999990799,0,0.2,19,V,5,311.80500000529,speed,right,0.2,24,experimental,101,0.2,1,5
1.15787999999896,180,0.2,19,V,5,306.039999995381,speed,left,0.2,25,experimental,101,0.2,0,5
0.834770000001416,0,0.2,19,V,5,334.664999986999,speed,right,0.2,26,experimental,101,0.2,0,5
0.667749999992549,0,0.2,19,V,5,364.084999994375,speed,right,0.2,27,experimental,101,0.2,1,5
0.622724999993108,0,0.2,19,V,5,361.059999994934,speed,right,0.2,28,experimental,101,0.2,0,5
1.02588000000082,0,0.2,19,V,5,352.124999990687,speed,right,0.2,29,experimental,101,0.2,1,5
1.59158500000183,180,0.2,19,V,5,730.349999998696,speed,left,0.2,30,experimental,101,0.2,1,5
0.80705999999214,180,0.2,19,V,5,267.410000000149,speed,left,0.2,31,experimental,101,0.2,1,5
0.810340000011027,180,0.2,19,V,5,317.355000006035,speed,left,0.2,32,experimental,101,0.2,0,5
0.640669999993406,0,0.2,19,V,5,276.545000000857,speed,right,0.2,33,experimental,101,0.2,1,5
1.0534499999918,180,0.2,19,V,5,311.734999995679,speed,left,0.2,34,experimental,101,0.2,1,5
0.588769999987446,0,0.2,19,V,5,347.229999998584,speed,right,0.2,35,experimental,101,0.2,1,5
1.10760000000335,180,0.2,19,V,5,272.109999991022,speed,left,0.2,36,experimental,101,0.2,1,5
0.452900000004098,0,0.2,19,V,5,243.010000005364,speed,right,0.2,37,experimental,101,0.2,1,5
0.509789999996312,180,0.2,19,V,5,250.169999998994,speed,left,0.2,38,experimental,101,0.2,1,5
0.64399499999173,180,0.2,19,V,5,206.109999999404,speed,left,0.2,39,experimental,101,0.2,1,5
0.500434999994934,0,0.2,19,V,5,232.535000002943,speed,right,0.2,40,experimental,101,0.2,1,5
1.18521999999881,0,0.2,19,V,5,198.185000001453,speed,right,0.2,41,experimental,101,0.2,0,5
0.483269999996759,0,0.2,19,V,5,231.385000006296,speed,right,0.2,42,experimental,101,0.2,1,5
0.435639999995939,0,0.2,19,V,5,178.35499999579,speed,right,0.2,43,experimental,101,0.2,0,5
0.840150000003167,180,0.2,19,V,5,164.615000001155,speed,left,0.2,44,experimental,101,0.2,1,5
0.50267500001099,180,0.2,19,V,5,134.415000008419,speed,left,0.2,45,experimental,101,0.2,1,5
0.493595000006258,0,0.2,19,V,5,175.539999996312,speed,right,0.2,46,experimental,101,0.2,1,5
0.895464999994263,180,0.2,19,V,5,135.265000004321,speed,left,0.2,47,experimental,101,0.2,1,5
0.638025000007823,180,0.2,19,V,5,201.915000012144,speed,left,0.2,48,experimental,101,0.2,0,5
0.700619999988005,0,0.2,19,V,5,170.510000010952,speed,right,0.2,49,experimental,101,0.2,0,5
0.608984999998473,0,0.2,19,V,5,249.504999999888,speed,right,0.2,50,experimental,101,0.2,1,5
1.30138499999885,0,0.2,19,V,4,769.220000001602,speed,right,0.2,51,experimental,101,0.2,1,4
0.596620000011288,0,0.2,19,V,5,356.535000013188,speed,right,0.2,52,experimental,101,0.2,1,5
0.510999999998137,180,0.2,19,V,5,437.239999999292,speed,left,0.2,53,experimental,101,0.2,1,5
0.46964999999851,180,0.2,19,V,5,299.589999995194,speed,left,0.2,54,experimental,101,0.2,0,5
0.446609999999404,180,0.2,19,V,5,213.295000009239,speed,left,0.2,55,experimental,101,0.2,1,5
0.446955000006594,0,0.2,19,V,5,279.414999997243,speed,right,0.2,56,experimental,101,0.2,1,5
0.612580000001006,0,0.2,19,V,5,271.580000000075,speed,right,0.2,57,experimental,101,0.2,1,5
0.631734999988228,180,0.2,19,V,5,237.494999993593,speed,left,0.2,58,experimental,101,0.2,1,5
0.655245000001974,180,0.2,19,V,5,196.479999998584,speed,left,0.2,59,experimental,101,0.2,1,5
0.87472999999579,180,0.2,19,V,5,257.879999990575,speed,left,0.2,60,experimental,101,0.2,0,5
1.21124999999255,0,0.2,19,V,5,338.205000007525,accuracy,right,0.2,1,experimental,101,0.2,1,5
0.517800000001676,0,0.2,19,V,5,277.765000006184,accuracy,right,0.2,2,experimental,101,0.2,1,5
0.571100000000559,180,0.2,19,V,5,274.454999991693,accuracy,left,0.2,3,experimental,101,0.2,1,5
0.673464999999851,0,0.2,19,V,5,293.705000002868,accuracy,right,0.2,4,experimental,101,0.2,1,5
0.526115000001155,0,0.2,19,V,5,222.555000000633,accuracy,right,0.2,5,experimental,101,0.2,0,5
0.995700000000186,180,0.2,19,V,5,210.610000008717,accuracy,left,0.2,6,experimental,101,0.2,1,5
0.658889999991283,180,0.2,19,V,5,159.285000002012,accuracy,left,0.2,7,experimental,101,0.2,1,5
0.464384999998845,180,0.2,19,V,5,288.174999994226,accuracy,left,0.2,8,experimental,101,0.2,0,5
1.00196000000834,0,0.2,19,V,5,273.809999998659,accuracy,right,0.2,9,experimental,101,0.2,1,5
0.519305000009015,0,0.2,19,V,5,257.469999996945,accuracy,right,0.2,10,experimental,101,0.2,1,5
0.581884999992326,180,0.2,19,V,5,169.420000005513,accuracy,left,0.2,11,experimental,101,0.2,1,5
0.592250000000931,180,0.2,19,V,5,221.525000000373,accuracy,left,0.2,12,experimental,101,0.2,0,5
0.599539999995381,0,0.2,19,V,5,270.814999996684,accuracy,right,0.2,13,experimental,101,0.2,1,5
0.478229999992996,180,0.2,19,V,5,231.934999988414,accuracy,left,0.2,14,experimental,101,0.2,1,5
0.567260000010021,0,0.2,19,V,5,230.645000003278,accuracy,right,0.2,15,experimental,101,0.2,1,5
0.920580000004731,180,0.2,19,V,5,240.480000006966,accuracy,left,0.2,16,experimental,101,0.2,0,5
0.65170499999728,180,0.2,19,V,5,255.839999997988,accuracy,left,0.2,17,experimental,101,0.2,0,5
0.506235000007786,0,0.2,19,V,5,316.560000006109,accuracy,right,0.2,18,experimental,101,0.2,1,5
0.853925000003539,0,0.2,19,V,5,328.300000008196,accuracy,right,0.2,19,experimental,101,0.2,1,5
0.639450000002049,180,0.2,19,V,5,181.51500000339,accuracy,left,0.2,20,experimental,101,0.2,1,5
0.525254999985918,0,0.2,19,V,5,262.73999999091,accuracy,right,0.2,21,experimental,101,0.2,1,5
0.504690000001341,0,0.2,19,V,5,235.954999996349,accuracy,right,0.2,22,experimental,101,0.2,1,5
0.535265000012703,180,0.2,19,V,5,223.444999996573,accuracy,left,0.2,23,experimental,101,0.2,0,5
0.47350499998685,180,0.2,19,V,5,283.38500000257,accuracy,left,0.2,24,experimental,101,0.2,0,5
0.619059999997728,180,0.2,19,V,5,221.604999998584,accuracy,left,0.2,25,experimental,101,0.2,0,5
0.501675000006333,0,0.2,19,V,5,224.895000006072,accuracy,right,0.2,26,experimental,101,0.2,1,5
0.57544499999471,0,0.2,19,V,5,310.120000008494,accuracy,right,0.2,27,experimental,101,0.2,1,5
0.659815000005998,0,0.2,19,V,5,277.214999994263,accuracy,right,0.2,28,experimental,101,0.2,1,5
0.998500000001863,180,0.2,19,V,5,183.944999997504,accuracy,left,0.2,29,experimental,101,0.2,1,5
0.507105000011623,0,0.2,19,V,5,174.330000008456,accuracy,right,0.2,30,experimental,101,0.2,1,5
0.557270000005141,0,0.2,19,V,5,191.390000007115,accuracy,right,0.2,31,experimental,101,0.2,1,5
0.748730000006966,180,0.2,19,V,5,208.295000004582,accuracy,left,0.2,32,experimental,101,0.2,1,5
0.487999999998137,0,0.2,19,V,5,177.809999994002,accuracy,right,0.2,33,experimental,101,0.2,1,5
1.0874049999984,180,0.2,19,V,5,213.004999998026,accuracy,left,0.2,34,experimental,101,0.2,1,5
0.533895000000484,180,0.2,19,V,5,181.819999997504,accuracy,left,0.2,35,experimental,101,0.2,1,5
0.773450000007637,180,0.2,19,V,5,231.740000003017,accuracy,left,0.2,36,experimental,101,0.2,0,5
0.578354999991134,180,0.2,19,V,5,344.339999996126,accuracy,left,0.2,37,experimental,101,0.2,0,5
0.657365000006743,180,0.2,19,V,5,133.000000000931,accuracy,left,0.2,38,experimental,101,0.2,1,5
0.700825000007637,0,0.2,19,V,5,175.499999997206,accuracy,right,0.2,39,experimental,101,0.2,1,5
0.559630000003614,0,0.2,19,V,5,202.7050000038,accuracy,right,0.2,40,experimental,101,0.2,1,5
0.462325000000186,180,0.2,19,V,5,167.490000006743,accuracy,left,0.2,41,experimental,101,0.2,1,5
0.572659999990836,0,0.2,19,V,5,130.660000010394,accuracy,right,0.2,42,experimental,101,0.2,1,5
0.959139999992214,180,0.2,19,V,5,162.264999992214,accuracy,left,0.2,43,experimental,101,0.2,1,5
1.14398500000313,180,0.2,19,V,5,124.855000001378,accuracy,left,0.2,44,experimental,101,0.2,0,5
0.881624999994412,180,0.2,19,V,5,134.550000002608,accuracy,left,0.2,45,experimental,101,0.2,1,5
0.517240000001155,0,0.2,19,V,5,160.449999996461,accuracy,right,0.2,46,experimental,101,0.2,1,5
0.530764999988489,0,0.2,19,V,5,134.600000004284,accuracy,right,0.2,47,experimental,101,0.2,1,5
1.40025500000082,0,0.2,19,V,5,171.829999992624,accuracy,right,0.2,48,experimental,101,0.2,0,5
0.5536200000057,0,0.2,19,V,5,283.86499999091,accuracy,right,0.2,49,experimental,101,0.2,1,5
0.636589999995194,0,0.2,19,V,5,249.024999997579,accuracy,right,0.2,50,experimental,101,0.2,1,5
0.640985000005923,180,0.2,19,V,5,203.3349999981,accuracy,left,0.2,51,experimental,101,0.2,1,5
0.435769999996759,0,0.2,19,V,5,176.560000007041,accuracy,right,0.2,52,experimental,101,0.2,1,5
1.17435000000056,180,0.2,19,V,5,258.580000009388,accuracy,left,0.2,53,experimental,101,0.2,0,5
0.716589999996126,180,0.2,19,V,5,183.944999996573,accuracy,left,0.2,54,experimental,101,0.2,1,5
1.13943500000518,180,0.2,19,V,5,233.89499999769,accuracy,left,0.2,55,experimental,101,0.2,0,5
0.857399999993853,180,0.2,19,V,5,255.325000005774,accuracy,left,0.2,56,experimental,101,0.2,0,5
2.58888500000443,0,0.2,19,V,5,158.880000002682,accuracy,right,0.2,57,experimental,101,0.2,0,5
1.15759999999125,180,0.2,19,V,5,84.2750000013039,accuracy,left,0.2,58,experimental,101,0.2,1,5
0.963745000001043,0,0.2,19,V,5,218.435000002384,accuracy,right,0.2,59,experimental,101,0.2,1,5
0.591805000003427,0,0.2,19,V,5,209.910000005737,accuracy,right,0.2,60,experimental,101,0.2,1,5
0.826635000005364,180,0.2,19,V,5,181.414999999106,speed,left,0.2,1,experimental,101,0.2,1,5
0.633035000005737,0,0.2,19,V,5,212.330000009388,speed,right,0.2,2,experimental,101,0.2,0,5
0.199414999996312,180,0.2,19,V,5,161.649999994785,speed,left,0.2,3,experimental,101,0.2,0,5
0.296035000006668,0,0.2,19,V,5,136.35500000976,speed,right,0.2,4,experimental,101,0.2,1,5
0.884890000001527,0,0.2,19,V,5,217.600000003353,speed,right,0.2,5,experimental,101,0.2,0,5
0.352480000001378,180,0.2,19,V,5,33.3499999977648,speed,left,0.2,6,experimental,101,0.2,0,5
0.559854999999516,0,0.2,19,V,5,148.069999995641,speed,right,0.2,7,experimental,101,0.2,1,5
0.558789999995381,0,0.2,19,V,5,118.519999989308,speed,right,0.2,8,experimental,101,0.2,1,5
0.755054999986663,180,0.2,19,V,5,146.080000006594,speed,left,0.2,9,experimental,101,0.2,1,5
0.592274999988265,180,0.2,19,V,5,80.8949999921024,speed,left,0.2,10,experimental,101,0.2,1,5
0.654219999996014,180,0.2,19,V,5,71.8900000071153,speed,left,0.2,11,experimental,101,0.2,1,5
0.507295000002719,0,0.2,19,V,5,1054.05999999493,speed,right,0.2,12,experimental,101,0.2,1,5
0.566205000010319,0,0.2,19,V,5,153.460000000894,speed,right,0.2,13,experimental,101,0.2,1,5
0.781080000000074,0,0.2,19,V,5,348.879999990575,speed,right,0.2,14,experimental,101,0.2,1,5
0.96090999999363,0,0.2,19,V,5,161.594999997877,speed,right,0.2,15,experimental,101,0.2,0,5
0.994009999994189,0,0.2,19,V,5,167.180000004359,speed,right,0.2,16,experimental,101,0.2,1,5
0.685440000001341,0,0.2,19,V,5,204.265000008047,speed,right,0.2,17,experimental,101,0.2,0,5
0.739329999997281,180,0.2,19,V,5,151.039999997243,speed,left,0.2,18,experimental,101,0.2,1,5
0.90830999999959,180,0.2,19,V,5,156.484999999404,speed,left,0.2,19,experimental,101,0.2,0,5
1.02545499999542,0,0.2,19,V,5,179.660000009462,speed,right,0.2,20,experimental,101,0.2,0,5
1.28905000000726,180,0.2,19,V,5,110.480000003241,speed,left,0.2,21,experimental,101,0.2,1,5
0.868629999997094,180,0.2,19,V,5,172.84999998752,speed,left,0.2,22,experimental,101,0.2,1,5
2.45367000000272,180,0.2,19,V,5,443.735000007786,speed,left,0.2,23,experimental,101,0.2,0,5
0.695254999998957,180,0.2,19,V,5,408.03500000108,speed,left,0.2,24,experimental,101,0.2,1,5
1.38533499999903,180,0.2,19,V,5,157.554999997839,speed,left,0.2,25,experimental,101,0.2,1,5
0.446429999995977,180,0.2,19,V,5,194.705000001937,speed,left,0.2,26,experimental,101,0.2,0,5
0.510674999997951,0,0.2,19,V,5,176.735000001267,speed,right,0.2,27,experimental,101,0.2,1,5
1.46190500000399,180,0.2,19,V,5,161.14499999024,speed,left,0.2,28,experimental,101,0.2,1,5
0.8093399999924,0,0.2,19,V,5,139.950000012293,speed,right,0.2,29,experimental,101,0.2,1,5
0.54845999999065,180,0.2,19,V,5,173.274999993853,speed,left,0.2,30,experimental,101,0.2,1,5
0.941474999999627,0,0.2,19,V,5,156.849999999627,speed,right,0.2,31,experimental,101,0.2,0,5
0.884834999989718,180,0.2,19,V,5,132.420000008307,speed,left,0.2,32,experimental,101,0.2,1,5
1.10429000000283,0,0.2,19,V,5,236.375000008382,speed,right,0.2,33,experimental,101,0.2,1,5
0.618845000004396,180,0.2,19,V,5,140.259999999776,speed,left,0.2,34,experimental,101,0.2,1,5
0.689329999993555,0,0.2,19,V,5,2.30000000726432,speed,right,0.2,35,experimental,101,0.2,1,5
1.20637499999441,0,0.2,19,V,5,106.005000009201,speed,right,0.2,36,experimental,101,0.2,0,5
0.650085000001825,0,0.2,19,V,5,88.3800000008196,speed,right,0.2,37,experimental,101,0.2,0,5
0.325889999993145,0,0.2,19,V,5,79.0549999950454,speed,right,0.2,38,experimental,101,0.2,1,5
0.611344999996945,0,0.2,19,V,5,121.14499999769,speed,right,0.2,39,experimental,101,0.2,1,5
0.595350000003353,180,0.2,19,V,5,122.855000007898,speed,left,0.2,40,experimental,101,0.2,0,5
0.435310000000522,180,0.2,19,V,5,96.8899999856949,speed,left,0.2,41,experimental,101,0.2,1,5
0.319189999994822,180,0.2,19,V,5,133.875,speed,left,0.2,42,experimental,101,0.2,1,5
0.259460000000894,0,0.2,19,V,5,134.214999997988,speed,right,0.2,43,experimental,101,0.2,1,5
0.165864999988116,180,0.2,19,V,5,128.339999995194,speed,left,0.2,44,experimental,101,0.2,1,5
0.298429999995045,180,0.2,19,V,5,106.864999994636,speed,left,0.2,45,experimental,101,0.2,0,5
0.229655000003055,0,0.2,19,V,5,60.6499999994412,speed,right,0.2,46,experimental,101,0.2,0,5
0.310300000011921,180,0.2,19,V,5,106.234999999404,speed,left,0.2,47,experimental,101,0.2,0,5
0.249199999991804,0,0.2,19,V,5,177.504999999888,speed,right,0.2,48,experimental,101,0.2,0,5
0.756590000003576,180,0.2,19,V,5,156.470000001602,speed,left,0.2,49,experimental,101,0.2,1,5
0.27594999999553,0,0.2,19,V,5,120.86000001058,speed,right,0.2,50,experimental,101,0.2,0,5
0.946540000004694,180,0.2,19,V,5,120.964999995194,speed,left,0.2,51,experimental,101,0.2,0,5
0.207590000005439,180,0.2,19,V,5,120.050000011921,speed,left,0.2,52,experimental,101,0.2,1,5
0.220775000008754,0,0.2,19,V,5,129.764999990351,speed,right,0.2,53,experimental,101,0.2,1,5
0.273304999995977,180,0.2,19,V,5,138.064999992028,speed,left,0.2,54,experimental,101,0.2,0,5
0.118579999994487,0,0.2,19,V,5,155.104999998584,speed,right,0.2,55,experimental,101,0.2,0,5
0.248525000003166,0,0.2,19,V,5,120.494999995455,speed,right,0.2,56,experimental,101,0.2,1,5
0.331854999996722,180,0.2,19,V,5,132.964999997057,speed,left,0.2,57,experimental,101,0.2,1,5
0.285025000005029,0,0.2,19,V,5,108.424999997951,speed,right,0.2,58,experimental,101,0.2,0,5
0.567494999995455,0,0.2,19,V,5,148.484999997541,speed,right,0.2,59,experimental,101,0.2,0,5
0.217004999998026,180,0.2,19,V,5,196.960000000894,speed,left,0.2,60,experimental,101,0.2,0,5
0.41609499999322,180,0.2,19,V,4,244.030000001192,accuracy,left,0.2,1,experimental,101,0.2,1,4
0.193530000003986,0,0.2,19,V,4,356.129999999888,accuracy,right,0.2,2,experimental,101,0.2,1,4
0.314610000001267,0,0.2,19,V,4,286.399999996647,accuracy,right,0.2,3,experimental,101,0.2,0,4
0.636104999997653,180,0.2,19,V,4,216.765000004321,accuracy,left,0.2,4,experimental,101,0.2,1,4
0.649645000012592,180,0.2,19,V,4,244.55999999214,accuracy,left,0.2,5,experimental,101,0.2,0,4
0.5209249999905,180,0.2,19,V,4,291.509999996051,accuracy,left,0.2,6,experimental,101,0.2,0,4
0.537454999998212,0,0.2,19,V,4,273.105000000447,accuracy,right,0.2,7,experimental,101,0.2,0,4
1.30401500000246,180,0.2,19,V,4,489.359999991953,accuracy,left,0.2,8,experimental,101,0.2,1,4
0.336895000000484,0,0.2,19,V,4,601.25500000082,accuracy,right,0.2,9,experimental,101,0.2,0,4
0.353455000004731,180,0.2,19,V,4,212.390000000596,accuracy,left,0.2,10,experimental,101,0.2,0,4
0.280509999996983,0,0.2,19,V,4,172.98000000231,accuracy,right,0.2,11,experimental,101,0.2,0,4
0.345455000002868,0,0.2,19,V,4,205.149999994785,accuracy,right,0.2,12,experimental,101,0.2,0,4
0.282540000000037,180,0.2,19,V,4,306.009999999776,accuracy,left,0.2,13,experimental,101,0.2,0,4
0.679959999993443,180,0.2,19,V,4,147.469999996014,accuracy,left,0.2,14,experimental,101,0.2,1,4
0.335915000003763,180,0.2,19,V,4,150.455000009388,accuracy,left,0.2,15,experimental,101,0.2,1,4
0.562795000004582,0,0.2,19,V,4,203.110000002198,accuracy,right,0.2,16,experimental,101,0.2,1,4
0.252984999999404,0,0.2,19,V,4,140.69500000868,accuracy,right,0.2,17,experimental,101,0.2,1,4
0.213260000004433,0,0.2,19,V,4,78.2499999916181,accuracy,right,0.2,18,experimental,101,0.2,0,4
0.0717449999945238,180,0.2,19,V,4,157.07499999553,accuracy,left,0.2,19,experimental,101,0.2,0,4
0.16251500000339,0,0.2,19,V,4,142.634999996051,accuracy,right,0.2,20,experimental,101,0.2,0,4
0.655134999993257,180,0.2,19,V,4,161.164999997243,accuracy,left,0.2,21,experimental,101,0.2,1,4
0.3222099999981,180,0.2,19,V,4,189.704999997281,accuracy,left,0.2,22,experimental,101,0.2,1,4
0.338304999997839,0,0.2,19,V,4,166.194999997504,accuracy,right,0.2,23,experimental,101,0.2,0,4
0.293454999991693,0,0.2,19,V,4,235.849999997765,accuracy,right,0.2,24,experimental,101,0.2,1,4
0.229550000003539,180,0.2,19,V,4,162.890000006184,accuracy,left,0.2,25,experimental,101,0.2,0,4
0.0935599999940023,180,0.2,19,V,4,192.710000002757,accuracy,left,0.2,26,experimental,101,0.2,0,4
0.130404999989085,0,0.2,19,V,4,149.105000004172,accuracy,right,0.2,27,experimental,101,0.2,0,4
0.0145449999980628,0,0.2,19,V,4,200.470000010915,accuracy,right,0.2,28,experimental,101,0.2,1,4
0.273209999999031,180,0.2,19,V,4,70.2299999976531,accuracy,left,0.2,29,experimental,101,0.2,1,4
0.891485000000335,180,0.2,19,V,4,140.484999995679,accuracy,left,0.2,30,experimental,101,0.2,0,4
0.557550000011921,0,0.2,19,V,4,163.155000002123,accuracy,right,0.2,31,experimental,101,0.2,1,4
0.707304999989457,180,0.2,19,V,4,239.164999991655,accuracy,left,0.2,32,experimental,101,0.2,1,4
0.495804999998771,0,0.2,19,V,4,214.600000006147,accuracy,right,0.2,33,experimental,101,0.2,1,4
0.272840000005439,0,0.2,19,V,4,134.760000001639,accuracy,right,0.2,34,experimental,101,0.2,0,4
0.294974999996834,180,0.2,19,V,4,96.2049999944866,accuracy,left,0.2,35,experimental,101,0.2,1,4
0.511529999989085,0,0.2,19,V,4,325.964999996126,accuracy,right,0.2,36,experimental,101,0.2,1,4
0.552225000007078,180,0.2,19,V,4,165.345000001602,accuracy,left,0.2,37,experimental,101,0.2,1,4
0.422385000012815,180,0.2,19,V,4,229.279999999329,accuracy,left,0.2,38,experimental,101,0.2,1,4
0.760034999999218,0,0.2,19,V,4,252.620000014082,accuracy,right,0.2,39,experimental,101,0.2,1,4
0.533819999996573,180,0.2,19,V,4,239.155000002123,accuracy,left,0.2,40,experimental,101,0.2,1,4
0.135864999989979,0,0.2,19,V,4,231.375000002794,accuracy,right,0.2,41,experimental,101,0.2,1,4
0.474795000001788,0,0.2,19,V,4,463.294999994338,accuracy,right,0.2,42,experimental,101,0.2,1,4
0.670880000004545,0,0.2,19,V,4,239.80500000529,accuracy,right,0.2,43,experimental,101,0.2,0,4
0.394155000002123,180,0.2,19,V,4,246.100000004284,accuracy,left,0.2,44,experimental,101,0.2,0,4
0.709030000013299,0,0.2,19,V,4,180.334999997169,accuracy,right,0.2,45,experimental,101,0.2,1,4
0.502139999996871,180,0.2,19,V,4,182.104999999516,accuracy,left,0.2,46,experimental,101,0.2,1,4
0.688194999995641,0,0.2,19,V,4,216.265000010841,accuracy,right,0.2,47,experimental,101,0.2,1,4
0.519954999996349,180,0.2,19,V,4,185.735000006855,accuracy,left,0.2,48,experimental,101,0.2,1,4
0.529824999990873,180,0.2,19,V,4,276.104999997653,accuracy,left,0.2,49,experimental,101,0.2,1,4
0.473075000001118,0,0.2,19,V,4,271.735000002198,accuracy,right,0.2,50,experimental,101,0.2,1,4
0.556114999999292,0,0.2,19,V,4,232.994999998249,accuracy,right,0.2,51,experimental,101,0.2,1,4
0.497080000001937,0,0.2,19,V,4,240.814999997616,accuracy,right,0.2,52,experimental,101,0.2,1,4
0.829829999987967,0,0.2,19,V,4,212.48999999091,accuracy,right,0.2,53,experimental,101,0.2,1,4
0.449565000002272,180,0.2,19,V,4,183.210000002757,accuracy,left,0.2,54,experimental,101,0.2,1,4
0.67132500000298,180,0.2,19,V,4,230.955000006594,accuracy,left,0.2,55,experimental,101,0.2,1,4
0.926860000006855,180,0.2,19,V,4,191.924999992363,accuracy,left,0.2,56,experimental,101,0.2,1,4
0.778389999992214,180,0.2,19,V,4,220.26000000257,accuracy,left,0.2,57,experimental,101,0.2,0,4
0.512905000010505,0,0.2,19,V,4,228.400000006892,accuracy,right,0.2,58,experimental,101,0.2,1,4
0.524079999987967,180,0.2,19,V,4,154.345000002533,accuracy,left,0.2,59,experimental,101,0.2,1,4
0.452244999992661,0,0.2,19,V,4,167.529999990948,accuracy,right,0.2,60,experimental,101,0.2,1,4
0.909444999997504,180,0.2,19,V,4,138.700000010431,speed,left,0.2,1,experimental,101,0.2,0,4
0.561344999994151,0,0.2,19,V,4,219.205000001006,speed,right,0.2,2,experimental,101,0.2,1,4
0.696205000000074,180,0.2,19,V,3,260.494999994524,speed,left,0.2,3,experimental,101,0.2,1,3
0.714780000009574,180,0.2,19,V,4,176.104999992065,speed,left,0.2,4,experimental,101,0.2,0,4
0.549129999999888,0,0.2,19,V,4,197.520000001416,speed,right,0.2,5,experimental,101,0.2,1,4
0.824554999999702,0,0.2,19,V,4,162.154999997467,speed,right,0.2,6,experimental,101,0.2,0,4
0.442360000000335,0,0.2,19,V,4,177.65999998711,speed,right,0.2,7,experimental,101,0.2,1,4
0.599960000006482,180,0.2,19,V,4,187.870000009425,speed,left,0.2,8,experimental,101,0.2,0,4
0.608870000011288,180,0.2,19,V,4,173.840000002645,speed,left,0.2,9,experimental,101,0.2,1,4
0.53158999999892,180,0.2,19,V,4,196.199999991804,speed,left,0.2,10,experimental,101,0.2,1,4
0.505530000009574,0,0.2,19,V,4,163.514999992214,speed,right,0.2,11,experimental,101,0.2,1,4
0.621344999992289,0,0.2,19,V,4,268.849999992177,speed,right,0.2,12,experimental,101,0.2,1,4
0.538834999999963,180,0.2,19,V,4,213.124999994412,speed,left,0.2,13,experimental,101,0.2,1,4
0.560335000001825,0,0.2,19,V,4,234.045000004582,speed,right,0.2,14,experimental,101,0.2,1,4
0.511675000000745,180,0.2,19,V,4,181.389999997802,speed,left,0.2,15,experimental,101,0.2,1,4
0.452409999997355,0,0.2,19,V,4,207.264999990351,speed,right,0.2,16,experimental,101,0.2,1,4
0.798685000001453,0,0.2,19,V,4,227.310000002384,speed,right,0.2,17,experimental,101,0.2,1,4
0.588064999988303,180,0.2,19,V,4,173.064999994822,speed,left,0.2,18,experimental,101,0.2,1,4
0.512589999997988,0,0.2,19,V,4,165.5449999962,speed,right,0.2,19,experimental,101,0.2,1,4
0.625775000007823,180,0.2,19,V,4,153.615000003017,speed,left,0.2,20,experimental,101,0.2,0,4
0.557764999990351,180,0.2,19,V,4,183.669999998063,speed,left,0.2,21,experimental,101,0.2,1,4
0.500260000000708,0,0.2,19,V,4,268.419999993406,speed,right,0.2,22,experimental,101,0.2,1,4
0.565265000011772,180,0.2,19,V,4,236.185000001453,speed,left,0.2,23,experimental,101,0.2,1,4
0.533760000005364,0,0.2,19,V,4,227.48499999661,speed,right,0.2,24,experimental,101,0.2,1,4
0.764775000003166,0,0.2,19,V,4,228.920000008307,speed,right,0.2,25,experimental,101,0.2,1,4
0.620130000010133,180,0.2,19,V,4,175.11499999091,speed,left,0.2,26,experimental,101,0.2,1,4
0.676495000007562,180,0.2,19,V,4,178.514999992214,speed,left,0.2,27,experimental,101,0.2,1,4
1.2466299999943,0,0.2,19,V,4,318.599999998696,speed,right,0.2,28,experimental,101,0.2,1,4
0.606159999995492,180,0.2,19,V,4,154.490000001155,speed,left,0.2,29,experimental,101,0.2,1,4
0.40652499999851,0,0.2,19,V,4,189.589999994263,speed,right,0.2,30,experimental,101,0.2,1,4
1.04531000000145,180,0.2,19,V,4,206.344999997877,speed,left,0.2,31,experimental,101,0.2,1,4
0.713090000004508,180,0.2,19,V,4,208.409999992698,speed,left,0.2,32,experimental,101,0.2,0,4
0.754035000005737,0,0.2,19,V,4,385.855000000447,speed,right,0.2,33,experimental,101,0.2,1,4
0.458339999997057,180,0.2,19,V,4,582.565000004135,speed,left,0.2,34,experimental,101,0.2,0,4
0.780055000009947,0,0.2,19,V,4,289.374999992549,speed,right,0.2,35,experimental,101,0.2,1,4
0.581180000009015,0,0.2,19,V,4,212.120000011288,speed,right,0.2,36,experimental,101,0.2,1,4
0.667660000005737,180,0.2,19,V,4,174.305000008084,speed,left,0.2,37,experimental,101,0.2,1,4
0.492800000007264,0,0.2,19,V,4,247.825000013225,speed,right,0.2,38,experimental,101,0.2,1,4
0.901644999991171,0,0.2,19,V,4,261.404999997467,speed,right,0.2,39,experimental,101,0.2,1,4
0.66622499999404,180,0.2,19,V,4,137.149999994785,speed,left,0.2,40,experimental,101,0.2,1,4
0.645489999994636,0,0.2,19,V,4,237.710000001825,speed,right,0.2,41,experimental,101,0.2,1,4
0.668595000009984,180,0.2,19,V,4,158.504999998957,speed,left,0.2,42,experimental,101,0.2,1,4
0.892569999996573,0,0.2,19,V,4,236.099999994971,speed,right,0.2,43,experimental,101,0.2,1,4
2.63653000000305,180,0.2,19,V,4,274.069999999367,speed,left,0.2,44,experimental,101,0.2,1,4
0.633025000002235,0,0.2,19,V,4,397.144999994896,speed,right,0.2,45,experimental,101,0.2,1,4
0.662055000008084,180,0.2,19,V,4,134.120000002906,speed,left,0.2,46,experimental,101,0.2,1,4
0.655615000011399,0,0.2,19,V,4,215.675000013784,speed,right,0.2,47,experimental,101,0.2,1,4
0.599845000003465,180,0.2,19,V,4,136.360000004061,speed,left,0.2,48,experimental,101,0.2,1,4
0.543250000002794,0,0.2,19,V,4,276.129999998026,speed,right,0.2,49,experimental,101,0.2,1,4
0.745464999999851,180,0.2,19,V,4,129.284999988042,speed,left,0.2,50,experimental,101,0.2,1,4
0.451614999998361,0,0.2,19,V,4,351.850000007078,speed,right,0.2,51,experimental,101,0.2,1,4
0.870575000007637,0,0.2,19,V,4,370.020000002347,speed,right,0.2,52,experimental,101,0.2,1,4
0.473920000003651,180,0.2,19,V,4,172.344999998808,speed,left,0.2,53,experimental,101,0.2,1,4
0.566379999989644,180,0.2,19,V,4,144.059999991208,speed,left,0.2,54,experimental,101,0.2,1,4
0.647295000002719,180,0.2,19,V,4,157.430000006221,speed,left,0.2,55,experimental,101,0.2,1,4
0.616600000008009,0,0.2,19,V,4,252.204999997281,speed,right,0.2,56,experimental,101,0.2,1,4
0.672025000007823,0,0.2,19,V,4,255.094999999739,speed,right,0.2,57,experimental,101,0.2,1,4
0.656155000003986,180,0.2,19,V,4,194.564999998547,speed,left,0.2,58,experimental,101,0.2,1,4
0.606169999998994,180,0.2,19,V,4,210.169999990612,speed,left,0.2,59,experimental,101,0.2,1,4
0.434455000009388,0,0.2,19,V,4,248.649999993853,speed,right,0.2,60,experimental,101,0.2,1,4
0.863709999989718,180,0.2,19,V,4,301.279999999329,accuracy,left,0.2,1,experimental,101,0.2,0,4
1.98914999999478,0,0.2,19,V,4,808.589999985881,accuracy,right,0.2,2,experimental,101,0.2,1,4
0.938905000003055,180,0.2,19,V,4,225.899999991059,accuracy,left,0.2,3,experimental,101,0.2,0,4
0.51761999999918,0,0.2,19,V,4,223.354999994859,accuracy,right,0.2,4,experimental,101,0.2,1,4
0.52223000000231,180,0.2,19,V,4,163.789999991655,accuracy,left,0.2,5,experimental,101,0.2,1,4
0.460755000006408,180,0.2,19,V,4,239.134999996051,accuracy,left,0.2,6,experimental,101,0.2,0,4
0.656150000010617,180,0.2,19,V,4,252.20000000298,accuracy,left,0.2,7,experimental,101,0.2,0,4
0.520470000003465,0,0.2,19,V,4,190.329999997281,accuracy,right,0.2,8,experimental,101,0.2,1,4
0.584755000003614,0,0.2,19,V,4,184.599999993108,accuracy,right,0.2,9,experimental,101,0.2,1,4
0.639600000009872,0,0.2,19,V,4,195.404999990948,accuracy,right,0.2,10,experimental,101,0.2,1,4
0.508279999994673,180,0.2,19,V,4,177.674999998882,accuracy,left,0.2,11,experimental,101,0.2,1,4
0.491555000000633,0,0.2,19,V,4,204.940000010654,accuracy,right,0.2,12,experimental,101,0.2,1,4
0.786219999994151,180,0.2,19,V,4,109.125000002794,accuracy,left,0.2,13,experimental,101,0.2,1,4
0.536354999989271,180,0.2,19,V,4,130.455000005662,accuracy,left,0.2,14,experimental,101,0.2,1,4
0.631510000007227,180,0.2,19,V,4,202.290000000969,accuracy,left,0.2,15,experimental,101,0.2,1,4
1.58434999999031,180,0.2,19,V,4,192.855000001378,accuracy,left,0.2,16,experimental,101,0.2,1,4
0.430860000007786,0,0.2,19,V,4,142.135000001639,accuracy,right,0.2,17,experimental,101,0.2,1,4
0.564740000002086,0,0.2,19,V,4,254.314999998547,accuracy,right,0.2,18,experimental,101,0.2,1,4
1.01360500000045,0,0.2,19,V,4,162.840000004508,accuracy,right,0.2,19,experimental,101,0.2,0,4
0.847175000002608,0,0.2,19,V,4,193.709999992512,accuracy,right,0.2,20,experimental,101,0.2,1,4
0.696909999998286,180,0.2,19,V,4,228.984999993816,accuracy,left,0.2,21,experimental,101,0.2,0,4
0.693995000009425,0,0.2,19,V,4,268.970000005327,accuracy,right,0.2,22,experimental,101,0.2,1,4
0.462805000002496,180,0.2,19,V,4,204.424999988638,accuracy,left,0.2,23,experimental,101,0.2,1,4
0.432029999996535,0,0.2,19,V,4,165.135000003502,accuracy,right,0.2,24,experimental,101,0.2,1,4
0.688315000006929,0,0.2,19,V,4,201.025000002235,accuracy,right,0.2,25,experimental,101,0.2,1,4
0.76672999998834,0,0.2,19,V,4,246.805000002496,accuracy,right,0.2,26,experimental,101,0.2,1,4
1.44579500000644,180,0.2,19,V,4,197.604999992996,accuracy,left,0.2,27,experimental,101,0.2,0,4
0.435794999998063,180,0.2,19,V,4,81.0600000116974,accuracy,left,0.2,28,experimental,101,0.2,1,4
0.762354999999516,180,0.2,19,V,4,101.125000000931,accuracy,left,0.2,29,experimental,101,0.2,1,4
1.03818499999773,180,0.2,19,V,4,59.3250000094995,accuracy,left,0.2,30,experimental,101,0.2,1,4
0.400690000009723,0,0.2,19,V,4,179.094999999739,accuracy,right,0.2,31,experimental,101,0.2,1,4
0.622080000001937,0,0.2,19,V,4,167.094999997877,accuracy,right,0.2,32,experimental,101,0.2,0,4
0.60655500000529,0,0.2,19,V,4,161.289999989793,accuracy,right,0.2,33,experimental,101,0.2,1,4
0.952055000001565,0,0.2,19,V,4,115.904999999329,accuracy,right,0.2,34,experimental,101,0.2,0,4
0.50647000000719,180,0.2,19,V,4,160.275000002235,accuracy,left,0.2,35,experimental,101,0.2,1,4
1.01596000000369,180,0.2,19,V,4,139.859999995679,accuracy,left,0.2,36,experimental,101,0.2,0,4
0.658180000013672,180,0.2,19,V,4,164.160000000149,accuracy,left,0.2,37,experimental,101,0.2,0,4
0.626910000005737,180,0.2,19,V,4,210.044999999925,accuracy,left,0.2,38,experimental,101,0.2,0,4
0.654689999995753,180,0.2,19,V,4,151.650000000373,accuracy,left,0.2,39,experimental,101,0.2,1,4
0.461824999991804,0,0.2,19,V,4,85.6550000021234,accuracy,right,0.2,40,experimental,101,0.2,1,4
0.840189999988303,0,0.2,19,V,4,175.365000003017,accuracy,right,0.2,41,experimental,101,0.2,0,4
0.613799999992363,180,0.2,19,V,4,226.939999993891,accuracy,left,0.2,42,experimental,101,0.2,1,4
0.61625500000082,180,0.2,19,V,4,210.460000001825,accuracy,left,0.2,43,experimental,101,0.2,0,4
0.435834999997169,0,0.2,19,V,4,229.259999992326,accuracy,right,0.2,44,experimental,101,0.2,1,4
0.447100000004284,0,0.2,19,V,4,231.599999998696,accuracy,right,0.2,45,experimental,101,0.2,1,4
0.696915000008419,180,0.2,19,V,4,155.650000001304,accuracy,left,0.2,46,experimental,101,0.2,1,4
1.42903500000853,0,0.2,19,V,4,261.010000001639,accuracy,right,0.2,47,experimental,101,0.2,1,4
1.07747000000346,0,0.2,19,V,4,170.999999987893,accuracy,right,0.2,48,experimental,101,0.2,1,4
1.71448999999836,0,0.2,19,V,4,131.169999992475,accuracy,right,0.2,49,experimental,101,0.2,0,4
0.546829999991693,180,0.2,19,V,3,1443.92499999981,accuracy,left,0.2,50,experimental,101,0.2,0,3
1.14535999999475,0,0.2,19,V,4,231.954999995418,accuracy,right,0.2,51,experimental,101,0.2,0,4
0.463185000000522,0,0.2,19,V,4,222.344999986701,accuracy,right,0.2,52,experimental,101,0.2,1,4
0.677200000005774,180,0.2,19,V,4,167.180000004359,accuracy,left,0.2,53,experimental,101,0.2,1,4
0.783749999987893,0,0.2,19,V,4,236.155000005849,accuracy,right,0.2,54,experimental,101,0.2,1,4
0.523354999996722,180,0.2,19,V,4,217.225000000559,accuracy,left,0.2,55,experimental,101,0.2,1,4
0.695974999994971,180,0.2,19,V,4,165.800000002608,accuracy,left,0.2,56,experimental,101,0.2,0,4
1.25658000000101,0,0.2,19,V,4,218.19999998901,accuracy,right,0.2,57,experimental,101,0.2,0,4
0.813800000003539,180,0.2,19,V,4,199.379999991506,accuracy,left,0.2,58,experimental,101,0.2,1,4
0.794459999989718,180,0.2,19,V,4,199.649999994785,accuracy,left,0.2,59,experimental,101,0.2,1,4
0.657265000001527,0,0.2,19,V,5,468.849999990314,accuracy,right,0.2,60,experimental,101,0.2,0,5
0.639230000000447,0,0.2,19,V,4,225.680000002496,speed,right,0.2,1,experimental,101,0.2,1,4
0.471554999996908,180,0.2,19,V,4,522.159999992698,speed,left,0.2,2,experimental,101,0.2,1,4
0.518429999996908,0,0.2,19,V,4,189.540000006557,speed,right,0.2,3,experimental,101,0.2,0,4
0.635045000002719,180,0.2,19,V,4,154.94000000786,speed,left,0.2,4,experimental,101,0.2,1,4
0.663000000000931,0,0.2,19,V,4,217.394999999553,speed,right,0.2,5,experimental,101,0.2,1,4
0.878129999997094,0,0.2,19,V,4,150.529999998398,speed,right,0.2,6,experimental,101,0.2,0,4
0.483110000001267,180,0.2,19,V,4,148.740000003949,speed,left,0.2,7,experimental,101,0.2,1,4
0.624150000003166,180,0.2,19,V,4,143.375,speed,left,0.2,8,experimental,101,0.2,1,4
0.604705000004731,180,0.2,19,V,4,434.119999990799,speed,left,0.2,9,experimental,101,0.2,0,4
0.631134999988601,0,0.2,19,V,4,160.000000003725,speed,right,0.2,10,experimental,101,0.2,0,4
0.626805000007153,180,0.2,19,V,4,148.845000003465,speed,left,0.2,11,experimental,101,0.2,1,4
0.704335000002757,0,0.2,19,V,4,194.575000001118,speed,right,0.2,12,experimental,101,0.2,1,4
0.611010000008158,180,0.2,19,V,4,147.660000002943,speed,left,0.2,13,experimental,101,0.2,1,4
0.822810000012629,180,0.2,19,V,4,222.349999995902,speed,left,0.2,14,experimental,101,0.2,0,4
0.524489999995567,180,0.2,19,V,4,141.785000000149,speed,left,0.2,15,experimental,101,0.2,1,4
1.08180000000075,180,0.2,19,V,4,140.239999993704,speed,left,0.2,16,experimental,101,0.2,1,4
0.545254999990575,0,0.2,19,V,4,190.384999994189,speed,right,0.2,17,experimental,101,0.2,1,4
0.459764999992214,0,0.2,19,V,4,184.390000009909,speed,right,0.2,18,experimental,101,0.2,1,4
0.738649999999441,0,0.2,19,V,4,199.689999993891,speed,right,0.2,19,experimental,101,0.2,1,4
0.975079999988899,0,0.2,19,V,4,171.379999999888,speed,right,0.2,20,experimental,101,0.2,1,4
0.993780000004917,0,0.2,19,V,4,156.059999994002,speed,right,0.2,21,experimental,101,0.2,0,4
0.975720000001602,180,0.2,19,V,4,118.835000001825,speed,left,0.2,22,experimental,101,0.2,1,4
0.804504999992438,180,0.2,19,V,4,137.554999994114,speed,left,0.2,23,experimental,101,0.2,1,4
0.507924999997951,0,0.2,19,V,4,146.47500000149,speed,right,0.2,24,experimental,101,0.2,1,4
0.931979999993928,180,0.2,19,V,4,108.514999999665,speed,left,0.2,25,experimental,101,0.2,1,4
0.719144999995828,0,0.2,19,V,4,147.289999993518,speed,right,0.2,26,experimental,101,0.2,1,4
0.669699999998324,0,0.2,19,V,4,228.264999998733,speed,right,0.2,27,experimental,101,0.2,1,4
0.45691499998793,180,0.2,19,V,4,76.394999996759,speed,left,0.2,28,experimental,101,0.2,1,4
0.647654999993742,180,0.2,19,V,4,132.890000008047,speed,left,0.2,29,experimental,101,0.2,1,4
1.03044499999657,0,0.2,19,V,4,217.084999996237,speed,right,0.2,30,experimental,101,0.2,1,4
0.200895000002347,180,0.2,19,V,4,120.119999992661,speed,left,0.2,31,experimental,101,0.2,1,4
0.632030000007711,0,0.2,19,V,4,163.239999994636,speed,right,0.2,32,experimental,101,0.2,1,4
0.261480000000447,180,0.2,19,V,4,122.790000008419,speed,left,0.2,33,experimental,101,0.2,1,4
0.275065000008792,180,0.2,19,V,4,242.595000003465,speed,left,0.2,34,experimental,101,0.2,0,4
0.640240000007674,0,0.2,19,V,4,211.959999999963,speed,right,0.2,35,experimental,101,0.2,1,4
0.467189999995753,0,0.2,19,V,4,236.245000007562,speed,right,0.2,36,experimental,101,0.2,1,4
0.446635000000708,180,0.2,19,V,4,168.009999994189,speed,left,0.2,37,experimental,101,0.2,1,4
0.546665000000969,180,0.2,19,V,4,145.745000001974,speed,left,0.2,38,experimental,101,0.2,0,4
0.388879999998957,0,0.2,19,V,4,168.399999995716,speed,right,0.2,39,experimental,101,0.2,0,4
0.497435000011697,0,0.2,19,V,4,160.490000009537,speed,right,0.2,40,experimental,101,0.2,0,4
0.530489999989979,180,0.2,19,V,4,171.314999999478,speed,left,0.2,41,experimental,101,0.2,0,4
0.558860000004992,180,0.2,19,V,4,192.810000007972,speed,left,0.2,42,experimental,101,0.2,1,4
0.340544999998994,0,0.2,19,V,4,247.755000003614,speed,right,0.2,43,experimental,101,0.2,0,4
0.793169999989681,0,0.2,19,V,4,262.239999995567,speed,right,0.2,44,experimental,101,0.2,1,4
0.884304999999702,180,0.2,19,V,4,157.135000000708,speed,left,0.2,45,experimental,101,0.2,1,4
1.68674000000488,0,0.2,19,V,4,262.32499998901,speed,right,0.2,46,experimental,101,0.2,1,4
0.631574999992736,0,0.2,19,V,4,324.965000007302,speed,right,0.2,47,experimental,101,0.2,1,4
0.286384999999776,180,0.2,19,V,4,327.114999992773,speed,left,0.2,48,experimental,101,0.2,0,4
0.315549999998882,0,0.2,19,V,4,231.440000003204,speed,right,0.2,49,experimental,101,0.2,0,4
0.637780000003986,0,0.2,19,V,4,232.505000007339,speed,right,0.2,50,experimental,101,0.2,1,4
0.379514999993145,0,0.2,19,V,4,259.384999996983,speed,right,0.2,51,experimental,101,0.2,1,4
0.429124999995343,0,0.2,19,V,4,165.715000010096,speed,right,0.2,52,experimental,101,0.2,0,4
0.306305000006221,180,0.2,19,V,4,180.305000001565,speed,left,0.2,53,experimental,101,0.2,1,4
0.112729999992996,0,0.2,19,V,4,227.014999996871,speed,right,0.2,54,experimental,101,0.2,1,4
0.688230000000447,180,0.2,19,V,4,120.409999988973,speed,left,0.2,55,experimental,101,0.2,1,4
0.229659999997355,180,0.2,19,V,4,174.90500000678,speed,left,0.2,56,experimental,101,0.2,0,4
0.255829999994487,180,0.2,19,V,4,242.744999995455,speed,left,0.2,57,experimental,101,0.2,0,4
0.215479999998584,180,0.2,19,V,4,97.0550000052899,speed,left,0.2,58,experimental,101,0.2,1,4
0.0103200000012293,0,0.2,19,V,4,417.719999997877,speed,right,0.2,59,experimental,101,0.2,0,4
0.197310000003315,180,0.2,19,V,4,193.439999988303,speed,left,0.2,60,experimental,101,0.2,0,4
