rt,coherent_direction,coherence,age,gender,resp_confidence,rt_confidence,sat_CB,direction,coherence_level,trial,phase,sub,coh,cor,cj
-0.001,0,0.5,22,M,-1,-1,speed,right,0.5,1,training_1,143,0.5,0,-1
2.61181499995291,0,0.5,22,M,-1,-1,speed,right,0.5,2,training_1,143,0.5,1,-1
3.10649499995634,0,0.5,22,M,-1,-1,speed,right,0.5,3,training_1,143,0.5,0,-1
1.05079000000842,180,0.5,22,M,-1,-1,speed,left,0.5,4,training_1,143,0.5,1,-1
1.0776200001128,180,0.5,22,M,-1,-1,speed,left,0.5,5,training_1,143,0.5,1,-1
0.696895000059158,180,0.5,22,M,-1,-1,speed,left,0.5,6,training_1,143,0.5,1,-1
0.790550000034273,180,0.5,22,M,-1,-1,speed,left,0.5,7,training_1,143,0.5,1,-1
0.956715000094846,0,0.5,22,M,-1,-1,speed,right,0.5,8,training_1,143,0.5,1,-1
0.74762999988161,180,0.5,22,M,-1,-1,speed,left,0.5,9,training_1,143,0.5,1,-1
1.67060999991372,0,0.5,22,M,-1,-1,speed,right,0.5,10,training_1,143,0.5,1,-1
0.610745000187308,180,0.5,22,M,-1,-1,speed,left,0.5,11,training_1,143,0.5,1,-1
0.705659999977797,0,0.5,22,M,-1,-1,speed,right,0.5,12,training_1,143,0.5,1,-1
2.91861000005156,0,0.5,22,M,-1,-1,speed,right,0.5,13,training_1,143,0.5,0,-1
0.83841499988921,180,0.5,22,M,-1,-1,speed,left,0.5,14,training_1,143,0.5,1,-1
0.879620000021532,180,0.5,22,M,-1,-1,speed,left,0.5,15,training_1,143,0.5,1,-1
1.2726000000257,180,0.5,22,M,-1,-1,speed,left,0.5,16,training_1,143,0.5,1,-1
1.12718000006862,180,0.5,22,M,-1,-1,speed,left,0.5,17,training_1,143,0.5,1,-1
1.15657999995165,0,0.5,22,M,-1,-1,speed,right,0.5,18,training_1,143,0.5,1,-1
0.875624999869615,180,0.5,22,M,-1,-1,speed,left,0.5,19,training_1,143,0.5,1,-1
0.652969999937341,0,0.5,22,M,-1,-1,speed,right,0.5,20,training_1,143,0.5,1,-1
0.70246999990195,0,0.5,22,M,-1,-1,speed,right,0.5,21,training_1,143,0.5,1,-1
0.788865000009537,180,0.5,22,M,-1,-1,speed,left,0.5,22,training_1,143,0.5,1,-1
0.790004999842495,0,0.5,22,M,-1,-1,speed,right,0.5,23,training_1,143,0.5,1,-1
0.550934999948367,0,0.5,22,M,-1,-1,speed,right,0.5,24,training_1,143,0.5,1,-1
0.970939999911934,180,0.2,22,M,-1,-1,speed,left,0.2,1,training_2,143,0.2,1,-1
0.925314999883994,180,0.2,22,M,-1,-1,speed,left,0.2,2,training_2,143,0.2,1,-1
0.895544999977574,180,0.2,22,M,-1,-1,speed,left,0.2,3,training_2,143,0.2,1,-1
1.05959499999881,0,0.2,22,M,-1,-1,speed,right,0.2,4,training_2,143,0.2,1,-1
0.992159999907017,0,0.2,22,M,-1,-1,speed,right,0.2,5,training_2,143,0.2,0,-1
0.998635000083596,180,0.2,22,M,-1,-1,speed,left,0.2,6,training_2,143,0.2,1,-1
0.760040000081062,0,0.2,22,M,-1,-1,speed,right,0.2,7,training_2,143,0.2,1,-1
0.722719999961555,180,0.2,22,M,-1,-1,speed,left,0.2,8,training_2,143,0.2,1,-1
0.875729999970645,0,0.2,22,M,-1,-1,speed,right,0.2,9,training_2,143,0.2,1,-1
0.698625000193715,0,0.2,22,M,-1,-1,speed,right,0.2,10,training_2,143,0.2,0,-1
0.873230000026524,180,0.2,22,M,-1,-1,speed,left,0.2,11,training_2,143,0.2,1,-1
1.03240499994718,0,0.2,22,M,-1,-1,speed,right,0.2,12,training_2,143,0.2,1,-1
0.722184999845922,180,0.2,22,M,-1,-1,speed,left,0.2,13,training_2,143,0.2,0,-1
1.12484499998391,0,0.2,22,M,-1,-1,speed,right,0.2,14,training_2,143,0.2,1,-1
0.777910000178963,0,0.2,22,M,-1,-1,speed,right,0.2,15,training_2,143,0.2,1,-1
0.813124999869615,0,0.2,22,M,-1,-1,speed,right,0.2,16,training_2,143,0.2,1,-1
2.41099000000395,180,0.2,22,M,-1,-1,speed,left,0.2,17,training_2,143,0.2,1,-1
2.07493000011891,180,0.2,22,M,-1,-1,speed,left,0.2,18,training_2,143,0.2,1,-1
1.21186499996111,180,0.2,22,M,-1,-1,speed,left,0.2,19,training_2,143,0.2,1,-1
1.93385499995202,180,0.2,22,M,-1,-1,speed,left,0.2,20,training_2,143,0.2,0,-1
0.971039999974892,0,0.2,22,M,-1,-1,speed,right,0.2,21,training_2,143,0.2,0,-1
0.792689999798313,180,0.2,22,M,-1,-1,speed,left,0.2,22,training_2,143,0.2,1,-1
0.743235000176355,0,0.2,22,M,-1,-1,speed,right,0.2,23,training_2,143,0.2,0,-1
0.913900000043213,0,0.2,22,M,-1,-1,speed,right,0.2,24,training_2,143,0.2,1,-1
2.14967499999329,0,0.2,22,M,5,6465.88500007056,speed,right,0.2,1,training_3,143,0.2,1,5
1.96094999997877,180,0.2,22,M,4,4847.99999999814,speed,left,0.2,2,training_3,143,0.2,1,4
1.27012000000104,0,0.2,22,M,5,2709.09499982372,speed,right,0.2,3,training_3,143,0.2,1,5
1.33239000011235,180,0.2,22,M,4,3406.04000003077,speed,left,0.2,4,training_3,143,0.2,1,4
1.73077000002377,180,0.2,22,M,4,1396.15999977104,speed,left,0.2,5,training_3,143,0.2,1,4
1.59791499981657,0,0.2,22,M,4,969.64000002481,speed,right,0.2,6,training_3,143,0.2,1,4
1.80450499989092,0,0.2,22,M,4,1162.6900001429,speed,right,0.2,7,training_3,143,0.2,0,4
1.02622500015423,180,0.2,22,M,6,664.410000201315,speed,left,0.2,8,training_3,143,0.2,1,6
1.27068500011228,180,0.2,22,M,6,480.130000039935,speed,left,0.2,9,training_3,143,0.2,1,6
1.38540500006638,0,0.2,22,M,4,384.350000182167,speed,right,0.2,10,training_3,143,0.2,1,4
2.33628499996848,180,0.2,22,M,6,503.164999885485,speed,left,0.2,11,training_3,143,0.2,0,6
0.893150000134483,0,0.2,22,M,4,784.794999985024,speed,right,0.2,12,training_3,143,0.2,0,4
2.56532999989577,180,0.2,22,M,4,405.729999998584,speed,left,0.2,13,training_3,143,0.2,1,4
1.02395500009879,180,0.2,22,M,6,535.090000135824,speed,left,0.2,14,training_3,143,0.2,1,6
1.25502000004053,0,0.2,22,M,4,891.554999863729,speed,right,0.2,15,training_3,143,0.2,1,4
0.751034999964759,180,0.2,22,M,4,763.61499982886,speed,left,0.2,16,training_3,143,0.2,1,4
1.24367500003427,0,0.2,22,M,4,455.064999870956,speed,right,0.2,17,training_3,143,0.2,0,4
0.720955000026152,0,0.2,22,M,5,700.074999826029,speed,right,0.2,18,training_3,143,0.2,1,5
0.856739999959245,0,0.2,22,M,5,557.98999988474,speed,right,0.2,19,training_3,143,0.2,1,5
0.865985000040382,180,0.2,22,M,5,516.850000014529,speed,left,0.2,20,training_3,143,0.2,0,5
1.14788000006229,0,0.2,22,M,4,595.25499981828,speed,right,0.2,21,training_3,143,0.2,1,4
2.21218999987468,0,0.2,22,M,6,618.819999974221,speed,right,0.2,22,training_3,143,0.2,1,6
0.761884999927133,180,0.2,22,M,4,578.750000102445,speed,left,0.2,23,training_3,143,0.2,1,4
0.687314999988303,180,0.2,22,M,4,479.634999996051,speed,left,0.2,24,training_3,143,0.2,0,4
0.628250000067055,0,0.2,22,M,4,930.239999899641,speed,right,0.2,1,experimental,143,0.2,1,4
0.772159999934956,180,0.2,22,M,6,341.814999934286,speed,left,0.2,2,experimental,143,0.2,1,6
0.847124999854714,0,0.2,22,M,6,483.344999840483,speed,right,0.2,3,experimental,143,0.2,1,6
0.719909999985248,0,0.2,22,M,5,504.04499983415,speed,right,0.2,4,experimental,143,0.2,0,5
0.759139999980107,0,0.2,22,M,6,342.785000102594,speed,right,0.2,5,experimental,143,0.2,1,6
0.849954999983311,180,0.2,22,M,4,677.050000056624,speed,left,0.2,6,experimental,143,0.2,1,4
0.576780000003055,180,0.2,22,M,5,390.145000070333,speed,left,0.2,7,experimental,143,0.2,1,5
0.703580000204965,0,0.2,22,M,6,276.524999877438,speed,right,0.2,8,experimental,143,0.2,1,6
0.714189999969676,180,0.2,22,M,4,662.229999899864,speed,left,0.2,9,experimental,143,0.2,1,4
0.710590000031516,0,0.2,22,M,6,191.494999919087,speed,right,0.2,10,experimental,143,0.2,1,6
0.860395000083372,180,0.2,22,M,4,252.54000001587,speed,left,0.2,11,experimental,143,0.2,1,4
1.34997499990277,180,0.2,22,M,4,455.995000200346,speed,left,0.2,12,experimental,143,0.2,1,4
1.07327000005171,180,0.2,22,M,6,458.689999999478,speed,left,0.2,13,experimental,143,0.2,1,6
0.805244999937713,180,0.2,22,M,6,202.159999869764,speed,left,0.2,14,experimental,143,0.2,0,6
1.19857000000775,0,0.2,22,M,6,270.534999901429,speed,right,0.2,15,experimental,143,0.2,1,6
0.853839999996126,180,0.2,22,M,4,459.924999857321,speed,left,0.2,16,experimental,143,0.2,1,4
0.722390000009909,0,0.2,22,M,6,309.849999845028,speed,right,0.2,17,experimental,143,0.2,1,6
0.833145000040531,0,0.2,22,M,5,434.184999903664,speed,right,0.2,18,experimental,143,0.2,1,5
1.26554500008933,180,0.2,22,M,6,348.745000082999,speed,left,0.2,19,experimental,143,0.2,1,6
0.985610000090674,0,0.2,22,M,6,262.325000017881,speed,right,0.2,20,experimental,143,0.2,1,6
2.07711499999277,0,0.2,22,M,6,201.639999868348,speed,right,0.2,21,experimental,143,0.2,0,6
1.50802000006661,0,0.2,22,M,4,847.780000185594,speed,right,0.2,22,experimental,143,0.2,1,4
1.10061999992467,180,0.2,22,M,4,410.374999977648,speed,left,0.2,23,experimental,143,0.2,1,4
0.950315000023693,180,0.2,22,M,5,399.310000007972,speed,left,0.2,24,experimental,143,0.2,0,5
1.38389000017196,180,0.2,22,M,6,286.130000138655,speed,left,0.2,25,experimental,143,0.2,1,6
1.68896499997936,0,0.2,22,M,6,254.515000153333,speed,right,0.2,26,experimental,143,0.2,0,6
1.12568499986082,180,0.2,22,M,6,202.454999787733,speed,left,0.2,27,experimental,143,0.2,1,6
2.67094499990344,180,0.2,22,M,5,1246.73000001349,speed,left,0.2,28,experimental,143,0.2,1,5
1.1277499999851,0,0.2,22,M,6,198.89000011608,speed,right,0.2,29,experimental,143,0.2,1,6
2.95521000004373,0,0.2,22,M,6,441.150000086054,speed,right,0.2,30,experimental,143,0.2,1,6
1.94072499987669,180,0.2,22,M,5,528.339999960735,speed,left,0.2,31,experimental,143,0.2,1,5
0.971069999970496,180,0.2,22,M,5,511.365000158548,speed,left,0.2,32,experimental,143,0.2,0,5
0.963305000215769,0,0.2,22,M,6,177.84500005655,speed,right,0.2,33,experimental,143,0.2,1,6
1.82915500015952,180,0.2,22,M,6,216.054999968037,speed,left,0.2,34,experimental,143,0.2,0,6
1.58323500002734,0,0.2,22,M,4,776.970000006258,speed,right,0.2,35,experimental,143,0.2,0,4
1.40336499991827,0,0.2,22,M,4,332.090000156313,speed,right,0.2,36,experimental,143,0.2,0,4
2.64476500009187,0,0.2,22,M,6,558.029999956489,speed,right,0.2,37,experimental,143,0.2,1,6
1.46461999998428,0,0.2,22,M,6,347.284999908879,speed,right,0.2,38,experimental,143,0.2,1,6
1.22209499985911,180,0.2,22,M,6,355.069999815896,speed,left,0.2,39,experimental,143,0.2,0,6
1.09389000013471,0,0.2,22,M,6,343.20000000298,speed,right,0.2,40,experimental,143,0.2,1,6
1.67279500002041,180,0.2,22,M,6,287.605000194162,speed,left,0.2,41,experimental,143,0.2,0,6
1.51483000000007,180,0.2,22,M,6,243.47999994643,speed,left,0.2,42,experimental,143,0.2,0,6
2.26437500002794,180,0.2,22,M,5,789.545000065118,speed,left,0.2,43,experimental,143,0.2,1,5
1.01870499993674,0,0.2,22,M,6,224.129999987781,speed,right,0.2,44,experimental,143,0.2,1,6
1.83669500006363,0,0.2,22,M,6,370.36499986425,speed,right,0.2,45,experimental,143,0.2,1,6
0.812815000070259,0,0.2,22,M,6,434.159999946132,speed,right,0.2,46,experimental,143,0.2,1,6
2.2141249999404,180,0.2,22,M,6,300.289999926463,speed,left,0.2,47,experimental,143,0.2,0,6
1.82177999988198,180,0.2,22,M,5,794.125000014901,speed,left,0.2,48,experimental,143,0.2,0,5
2.01423000008799,180,0.2,22,M,4,553.739999886602,speed,left,0.2,49,experimental,143,0.2,1,4
1.21852999995463,0,0.2,22,M,6,312.77499999851,speed,right,0.2,50,experimental,143,0.2,1,6
2.12006500014104,180,0.2,22,M,6,309.470000211149,speed,left,0.2,51,experimental,143,0.2,0,6
2.06071999995038,180,0.2,22,M,6,343.630000017583,speed,left,0.2,52,experimental,143,0.2,0,6
0.861849999986589,180,0.2,22,M,6,544.239999959245,speed,left,0.2,53,experimental,143,0.2,1,6
0.834009999874979,0,0.2,22,M,6,492.889999877661,speed,right,0.2,54,experimental,143,0.2,1,6
1.0926000000909,180,0.2,22,M,6,348.424999974668,speed,left,0.2,55,experimental,143,0.2,1,6
0.838370000012219,180,0.2,22,M,6,213.77499983646,speed,left,0.2,56,experimental,143,0.2,1,6
0.63323500007391,0,0.2,22,M,6,204.075000016019,speed,right,0.2,57,experimental,143,0.2,1,6
0.749740000115708,0,0.2,22,M,6,201.665000058711,speed,right,0.2,58,experimental,143,0.2,1,6
0.851829999824986,0,0.2,22,M,4,677.619999973103,speed,right,0.2,59,experimental,143,0.2,0,4
0.535094999941066,0,0.2,22,M,6,245.459999889135,speed,right,0.2,60,experimental,143,0.2,1,6
-0.001,180,0.2,22,M,1,4777.30000019073,speed,left,0.2,1,experimental,143,0.2,0,1
2.6112949999515,180,0.2,22,M,6,732.175000011921,speed,left,0.2,2,experimental,143,0.2,1,6
1.47749499999918,180,0.2,22,M,5,523.39500002563,speed,left,0.2,3,experimental,143,0.2,0,5
1.91315499995835,0,0.2,22,M,6,546.570000005886,speed,right,0.2,4,experimental,143,0.2,1,6
1.20595000009052,180,0.2,22,M,6,440.780000062659,speed,left,0.2,5,experimental,143,0.2,1,6
0.856039999984205,0,0.2,22,M,6,438.889999873936,speed,right,0.2,6,experimental,143,0.2,1,6
0.785405000206083,0,0.2,22,M,6,210.745000047609,speed,right,0.2,7,experimental,143,0.2,1,6
2.22288500005379,180,0.2,22,M,6,377.37000011839,speed,left,0.2,8,experimental,143,0.2,1,6
0.814909999957308,180,0.2,22,M,6,376.664999872446,speed,left,0.2,9,experimental,143,0.2,1,6
0.92284999997355,0,0.2,22,M,4,818.105000071228,speed,right,0.2,10,experimental,143,0.2,0,4
1.76303000003099,0,0.2,22,M,6,113.464999943972,speed,right,0.2,11,experimental,143,0.2,0,6
1.33755999989808,0,0.2,22,M,6,228.289999999106,speed,right,0.2,12,experimental,143,0.2,1,6
1.39426500000991,0,0.2,22,M,6,669.135000091046,speed,right,0.2,13,experimental,143,0.2,1,6
0.947644999949262,0,0.2,22,M,6,260.079999919981,speed,right,0.2,14,experimental,143,0.2,1,6
0.724644999951124,0,0.2,22,M,6,224.105000030249,speed,right,0.2,15,experimental,143,0.2,1,6
1.14008499984629,180,0.2,22,M,6,378.454999998212,speed,left,0.2,16,experimental,143,0.2,0,6
0.797774999868125,0,0.2,22,M,6,262.765000108629,speed,right,0.2,17,experimental,143,0.2,1,6
1.2179199999664,180,0.2,22,M,6,287.040000082925,speed,left,0.2,18,experimental,143,0.2,0,6
1.21860000002198,0,0.2,22,M,6,544.174999929965,speed,right,0.2,19,experimental,143,0.2,1,6
2.32542999996804,180,0.2,22,M,6,626.999999862164,speed,left,0.2,20,experimental,143,0.2,0,6
0.717380000045523,180,0.2,22,M,6,208.315000170842,speed,left,0.2,21,experimental,143,0.2,0,6
2.07996000000276,180,0.2,22,M,1,2029.0850000456,speed,left,0.2,22,experimental,143,0.2,0,1
2.4179249999579,180,0.2,22,M,6,608.065000036731,speed,left,0.2,23,experimental,143,0.2,1,6
0.894879999803379,0,0.2,22,M,6,309.40999998711,speed,right,0.2,24,experimental,143,0.2,1,6
3.15861999988556,180,0.2,22,M,6,412.509999936447,speed,left,0.2,25,experimental,143,0.2,0,6
3.00044499989599,0,0.2,22,M,4,624.695000005886,speed,right,0.2,26,experimental,143,0.2,0,4
0.829879999859259,0,0.2,22,M,6,290.599999949336,speed,right,0.2,27,experimental,143,0.2,1,6
0.802350000012666,180,0.2,22,M,6,220.680000027642,speed,left,0.2,28,experimental,143,0.2,0,6
1.61911000008695,180,0.2,22,M,6,171.594999963418,speed,left,0.2,29,experimental,143,0.2,0,6
3.01561499992386,0,0.2,22,M,6,165.719999931753,speed,right,0.2,30,experimental,143,0.2,0,6
1.25955000007525,180,0.2,22,M,6,364.934999961406,speed,left,0.2,31,experimental,143,0.2,1,6
1.41894500004128,0,0.2,22,M,6,783.189999870956,speed,right,0.2,32,experimental,143,0.2,0,6
1.40598000003956,0,0.2,22,M,6,272.319999989122,speed,right,0.2,33,experimental,143,0.2,0,6
1.06217999989167,180,0.2,22,M,6,346.254999982193,speed,left,0.2,34,experimental,143,0.2,0,6
1.49642500001937,0,0.2,22,M,6,379.299999913201,speed,right,0.2,35,experimental,143,0.2,1,6
1.28904499998316,180,0.2,22,M,6,295.37000018172,speed,left,0.2,36,experimental,143,0.2,1,6
1.56350499996915,180,0.2,22,M,6,277.325000148267,speed,left,0.2,37,experimental,143,0.2,0,6
2.51420500013046,180,0.2,22,M,6,394.265000009909,speed,left,0.2,38,experimental,143,0.2,1,6
1.21110500022769,180,0.2,22,M,6,320.35499997437,speed,left,0.2,39,experimental,143,0.2,0,6
1.01742499996908,0,0.2,22,M,6,362.895000027493,speed,right,0.2,40,experimental,143,0.2,1,6
0.734305000165477,180,0.2,22,M,6,277.675000019372,speed,left,0.2,41,experimental,143,0.2,0,6
0.958635000046343,0,0.2,22,M,6,375.900000100955,speed,right,0.2,42,experimental,143,0.2,1,6
1.14280500006862,180,0.2,22,M,6,354.019999969751,speed,left,0.2,43,experimental,143,0.2,1,6
1.16700500017032,0,0.2,22,M,6,410.924999974668,speed,right,0.2,44,experimental,143,0.2,1,6
0.73340000002645,0,0.2,22,M,6,393.629999831319,speed,right,0.2,45,experimental,143,0.2,1,6
1.53191000013612,180,0.2,22,M,6,393.52499996312,speed,left,0.2,46,experimental,143,0.2,0,6
1.61308500007726,0,0.2,22,M,6,315.555000212044,speed,right,0.2,47,experimental,143,0.2,1,6
1.17153499997221,0,0.2,22,M,6,254.105000058189,speed,right,0.2,48,experimental,143,0.2,0,6
0.916419999906793,0,0.2,22,M,6,224.210000131279,speed,right,0.2,49,experimental,143,0.2,1,6
0.898994999937713,180,0.2,22,M,6,300.775000127032,speed,left,0.2,50,experimental,143,0.2,1,6
2.67102999985218,180,0.2,22,M,4,1025.5650000181,speed,left,0.2,51,experimental,143,0.2,0,4
0.828334999969229,0,0.2,22,M,6,240.96000008285,speed,right,0.2,52,experimental,143,0.2,1,6
0.959640000015497,180,0.2,22,M,6,319.4450000301,speed,left,0.2,53,experimental,143,0.2,1,6
0.743024999974295,0,0.2,22,M,6,206.565000116825,speed,right,0.2,54,experimental,143,0.2,1,6
0.611945000011474,0,0.2,22,M,6,190.189999993891,speed,right,0.2,55,experimental,143,0.2,1,6
0.918860000092536,180,0.2,22,M,6,366.969999857247,speed,left,0.2,56,experimental,143,0.2,1,6
0.659000000217929,180,0.2,22,M,6,209.789999993518,speed,left,0.2,57,experimental,143,0.2,0,6
0.628280000062659,180,0.2,22,M,6,206.595000112429,speed,left,0.2,58,experimental,143,0.2,0,6
0.807685000123456,0,0.2,22,M,6,364.344999892637,speed,right,0.2,59,experimental,143,0.2,1,6
0.607709999894723,0,0.2,22,M,5,578.639999963343,speed,right,0.2,60,experimental,143,0.2,1,5
0.842070000013337,0,0.2,22,M,6,5008.03499994799,speed,right,0.2,1,experimental,143,0.2,1,6
0.916429999982938,180,0.2,22,M,6,270.465000066906,speed,left,0.2,2,experimental,143,0.2,0,6
0.539660000009462,0,0.2,22,M,6,194.849999854341,speed,right,0.2,3,experimental,143,0.2,1,6
0.322734999936074,0,0.2,22,M,6,233.299999963492,speed,right,0.2,4,experimental,143,0.2,0,6
0.2453000000678,180,0.2,22,M,1,1453.35999992676,speed,left,0.2,5,experimental,143,0.2,0,1
0.663400000194088,0,0.2,22,M,6,198.314999928698,speed,right,0.2,6,experimental,143,0.2,1,6
0.398235000204295,180,0.2,22,M,6,295.069999992847,speed,left,0.2,7,experimental,143,0.2,1,6
0.599709999980405,180,0.2,22,M,6,138.365000020713,speed,left,0.2,8,experimental,143,0.2,1,6
0.361865000100806,0,0.2,22,M,6,145.714999875054,speed,right,0.2,9,experimental,143,0.2,1,6
0.42259500012733,180,0.2,22,M,6,197.420000098646,speed,left,0.2,10,experimental,143,0.2,0,6
0.405585000058636,0,0.2,22,M,1,612.570000113919,speed,right,0.2,11,experimental,143,0.2,1,1
0.578475000103936,180,0.2,22,M,6,387.19499995932,speed,left,0.2,12,experimental,143,0.2,1,6
0.577999999979511,0,0.2,22,M,6,223.570000147447,speed,right,0.2,13,experimental,143,0.2,1,6
0.323829999892041,180,0.2,22,M,6,252.199999988079,speed,left,0.2,14,experimental,143,0.2,1,6
0.582345000002533,180,0.2,22,M,1,652.994999894872,speed,left,0.2,15,experimental,143,0.2,0,1
0.533210000023246,180,0.2,22,M,6,172.260000137612,speed,left,0.2,16,experimental,143,0.2,1,6
0.479925000108778,0,0.2,22,M,6,162.255000090227,speed,right,0.2,17,experimental,143,0.2,1,6
0.479955000104383,0,0.2,22,M,6,307.825000025332,speed,right,0.2,18,experimental,143,0.2,0,6
0.485385000007227,0,0.2,22,M,6,161.184999858961,speed,right,0.2,19,experimental,143,0.2,1,6
0.565064999973401,180,0.2,22,M,6,183.35000006482,speed,left,0.2,20,experimental,143,0.2,1,6
1.10628499998711,0,0.2,22,M,6,293.165000155568,speed,right,0.2,21,experimental,143,0.2,0,6
0.692345000104979,0,0.2,22,M,6,124.319999944419,speed,right,0.2,22,experimental,143,0.2,0,6
1.12034499994479,180,0.2,22,M,6,280.08499997668,speed,left,0.2,23,experimental,143,0.2,1,6
0.836324999807402,180,0.2,22,M,6,270.034999819472,speed,left,0.2,24,experimental,143,0.2,0,6
0.657654999988154,180,0.2,22,M,6,146.440000040457,speed,left,0.2,25,experimental,143,0.2,1,6
1.08192999986932,180,0.2,22,M,6,63.5249998886138,speed,left,0.2,26,experimental,143,0.2,1,6
0.59031999995932,0,0.2,22,M,6,110.469999955967,speed,right,0.2,27,experimental,143,0.2,1,6
1.43424999993294,180,0.2,22,M,6,73.8999999593943,speed,left,0.2,28,experimental,143,0.2,1,6
1.72634499985725,180,0.2,22,M,6,188.899999950081,speed,left,0.2,29,experimental,143,0.2,0,6
0.636015000054613,0,0.2,22,M,6,249.715000158176,speed,right,0.2,30,experimental,143,0.2,1,6
0.864694999996573,0,0.2,22,M,6,119.209999917075,speed,right,0.2,31,experimental,143,0.2,1,6
0.857090000063181,0,0.2,22,M,6,177.980000153184,speed,right,0.2,32,experimental,143,0.2,1,6
0.7725700000301,180,0.2,22,M,6,46.4000001084059,speed,left,0.2,33,experimental,143,0.2,0,6
1.14859499991871,180,0.2,22,M,6,124.665000010282,speed,left,0.2,34,experimental,143,0.2,0,6
0.967764999950305,0,0.2,22,M,6,214.819999877363,speed,right,0.2,35,experimental,143,0.2,0,6
0.82956500002183,0,0.2,22,M,6,133.370000170544,speed,right,0.2,36,experimental,143,0.2,1,6
0.754659999860451,0,0.2,22,M,6,176.005000015721,speed,right,0.2,37,experimental,143,0.2,1,6
0.816485000075772,180,0.2,22,M,6,72.3600001074374,speed,left,0.2,38,experimental,143,0.2,1,6
0.839565000031143,180,0.2,22,M,6,132.819999940693,speed,left,0.2,39,experimental,143,0.2,0,6
0.721214999910444,0,0.2,22,M,6,78.2800000160933,speed,right,0.2,40,experimental,143,0.2,0,6
0.677205000072718,0,0.2,22,M,6,45.8199998829514,speed,right,0.2,41,experimental,143,0.2,1,6
0.532410000218078,0,0.2,22,M,6,97.1099999733269,speed,right,0.2,42,experimental,143,0.2,1,6
0.387690000003204,180,0.2,22,M,6,96.964999800548,speed,left,0.2,43,experimental,143,0.2,1,6
0.270309999817982,180,0.2,22,M,6,1395.12999984436,speed,left,0.2,44,experimental,143,0.2,0,6
0.399334999965504,0,0.2,22,M,6,337.539999978617,speed,right,0.2,45,experimental,143,0.2,0,6
0.378490000031888,180,0.2,22,M,6,294.095000019297,speed,left,0.2,46,experimental,143,0.2,0,6
0.428214999847114,180,0.2,22,M,6,152.054999954998,speed,left,0.2,47,experimental,143,0.2,1,6
0.368710000067949,0,0.2,22,M,6,157.390000065789,speed,right,0.2,48,experimental,143,0.2,1,6
0.47065500007011,180,0.2,22,M,6,552.35999985598,speed,left,0.2,49,experimental,143,0.2,0,6
0.718920000130311,0,0.2,22,M,6,114.534999942407,speed,right,0.2,50,experimental,143,0.2,1,6
0.588304999982938,180,0.2,22,M,6,129.435000009835,speed,left,0.2,51,experimental,143,0.2,1,6
0.42659500008449,0,0.2,22,M,6,175.069999881089,speed,right,0.2,52,experimental,143,0.2,0,6
0.360395000083372,0,0.2,22,M,6,122.310000006109,speed,right,0.2,53,experimental,143,0.2,1,6
0.498145000077784,180,0.2,22,M,6,102.359999902546,speed,left,0.2,54,experimental,143,0.2,1,6
0.278980000177398,0,0.2,22,M,6,124.335000058636,speed,right,0.2,55,experimental,143,0.2,1,6
0.479074999922886,180,0.2,22,M,6,82.4049999937415,speed,left,0.2,56,experimental,143,0.2,1,6
0.778715000022203,180,0.2,22,M,6,91.8999998830259,speed,left,0.2,57,experimental,143,0.2,1,6
0.552034999942407,180,0.2,22,M,6,96.9249999616295,speed,left,0.2,58,experimental,143,0.2,0,6
0.357989999931306,0,0.2,22,M,6,111.615000059828,speed,right,0.2,59,experimental,143,0.2,0,6
0.344410000136122,0,0.2,22,M,6,39.2049998044968,speed,right,0.2,60,experimental,143,0.2,1,6
2.12872499995865,0,0.2,22,M,6,2594.0399998799,speed,right,0.2,1,experimental,143,0.2,1,6
2.21738000004552,0,0.2,22,M,6,462.619999889284,speed,right,0.2,2,experimental,143,0.2,1,6
3.42308500013314,0,0.2,22,M,6,636.244999943301,speed,right,0.2,3,experimental,143,0.2,1,6
2.62465999997221,180,0.2,22,M,6,980.484999949113,speed,left,0.2,4,experimental,143,0.2,1,6
2.33646499994211,180,0.2,22,M,6,838.359999936074,speed,left,0.2,5,experimental,143,0.2,1,6
1.87053499999456,0,0.2,22,M,5,544.155000010505,speed,right,0.2,6,experimental,143,0.2,1,5
1.48277000011876,180,0.2,22,M,6,471.320000011474,speed,left,0.2,7,experimental,143,0.2,0,6
2.10395999997854,180,0.2,22,M,6,525.11000004597,speed,left,0.2,8,experimental,143,0.2,1,6
1.79415500001051,180,0.2,22,M,6,360.869999974966,speed,left,0.2,9,experimental,143,0.2,0,6
1.90521500003524,180,0.2,22,M,6,493.994999909773,speed,left,0.2,10,experimental,143,0.2,0,6
1.38365500001237,0,0.2,22,M,6,548.854999942705,speed,right,0.2,11,experimental,143,0.2,0,6
1.27336500003003,0,0.2,22,M,6,303.244999842718,speed,right,0.2,12,experimental,143,0.2,1,6
2.03870499995537,0,0.2,22,M,6,400.119999889284,speed,right,0.2,13,experimental,143,0.2,1,6
2.3066800001543,0,0.2,22,M,6,566.660000011325,speed,right,0.2,14,experimental,143,0.2,1,6
1.97336000017822,180,0.2,22,M,6,368.335000006482,speed,left,0.2,15,experimental,143,0.2,1,6
0.700299999909475,180,0.2,22,M,6,361.245000036433,speed,left,0.2,16,experimental,143,0.2,0,6
1.39883000007831,180,0.2,22,M,6,1285.6300000567,speed,left,0.2,17,experimental,143,0.2,0,6
2.5702450000681,180,0.2,22,M,6,518.255000002682,speed,left,0.2,18,experimental,143,0.2,0,6
1.63111999980174,0,0.2,22,M,6,577.985000098124,speed,right,0.2,19,experimental,143,0.2,1,6
3.28700000001118,180,0.2,22,M,6,678.740000119433,speed,left,0.2,20,experimental,143,0.2,0,6
2.40845999983139,180,0.2,22,M,6,479.48500001803,speed,left,0.2,21,experimental,143,0.2,0,6
3.3253450000193,0,0.2,22,M,6,253.144999966025,speed,right,0.2,22,experimental,143,0.2,1,6
1.67572499997914,0,0.2,22,M,6,391.035000095144,speed,right,0.2,23,experimental,143,0.2,1,6
1.934104999993,0,0.2,22,M,4,577.780000166968,speed,right,0.2,24,experimental,143,0.2,1,4
1.08048500004224,180,0.2,22,M,6,269.354999996722,speed,left,0.2,25,experimental,143,0.2,1,6
1.39778999984264,180,0.2,22,M,6,657.750000013039,speed,left,0.2,26,experimental,143,0.2,1,6
1.24055999983102,180,0.2,22,M,6,344.899999909103,speed,left,0.2,27,experimental,143,0.2,0,6
0.779605000047013,0,0.2,22,M,6,318.780000088736,speed,right,0.2,28,experimental,143,0.2,1,6
1.3462100001052,0,0.2,22,M,6,361.559999873862,speed,right,0.2,29,experimental,143,0.2,1,6
1.58193000010215,0,0.2,22,M,6,232.19499993138,speed,right,0.2,30,experimental,143,0.2,1,6
3.10091500007547,180,0.2,22,M,6,619.184999959543,speed,left,0.2,31,experimental,143,0.2,1,6
2.67018000013195,0,0.2,22,M,6,359.679999994114,speed,right,0.2,32,experimental,143,0.2,1,6
2.472545000026,180,0.2,22,M,6,563.000000081956,speed,left,0.2,33,experimental,143,0.2,1,6
1.66884499997832,180,0.2,22,M,6,729.31499988772,speed,left,0.2,34,experimental,143,0.2,1,6
1.75942500005476,0,0.2,22,M,6,489.199999952689,speed,right,0.2,35,experimental,143,0.2,1,6
1.86656500003301,0,0.2,22,M,6,524.500000057742,speed,right,0.2,36,experimental,143,0.2,1,6
1.06392499990761,180,0.2,22,M,6,330.825000070035,speed,left,0.2,37,experimental,143,0.2,0,6
2.1852549999021,0,0.2,22,M,6,942.11500021629,speed,right,0.2,38,experimental,143,0.2,1,6
2.19369000010192,0,0.2,22,M,6,562.135000014678,speed,right,0.2,39,experimental,143,0.2,0,6
2.58566499990411,0,0.2,22,M,6,916.160000022501,speed,right,0.2,40,experimental,143,0.2,1,6
4.33798999991268,180,0.2,22,M,4,719.964999938384,speed,left,0.2,41,experimental,143,0.2,0,4
4.08676499989815,180,0.2,22,M,6,385.384999914095,speed,left,0.2,42,experimental,143,0.2,0,6
2.3045399999246,0,0.2,22,M,6,417.105000000447,speed,right,0.2,43,experimental,143,0.2,1,6
1.04708499996923,0,0.2,22,M,6,300.900000147521,speed,right,0.2,44,experimental,143,0.2,1,6
0.762574999826029,0,0.2,22,M,6,293.414999963716,speed,right,0.2,45,experimental,143,0.2,1,6
1.48916499991901,180,0.2,22,M,6,438.444999977946,speed,left,0.2,46,experimental,143,0.2,1,6
1.92504000011832,180,0.2,22,M,6,374.729999806732,speed,left,0.2,47,experimental,143,0.2,0,6
1.31872499990277,180,0.2,22,M,6,323.059999849647,speed,left,0.2,48,experimental,143,0.2,0,6
1.58273999998346,180,0.2,22,M,6,487.639999948442,speed,left,0.2,49,experimental,143,0.2,0,6
1.38342500012368,180,0.2,22,M,6,264.574999921024,speed,left,0.2,50,experimental,143,0.2,0,6
1.4966649999842,0,0.2,22,M,6,322.775000007823,speed,right,0.2,51,experimental,143,0.2,1,6
2.8912700000219,180,0.2,22,M,6,265.710000181571,speed,left,0.2,52,experimental,143,0.2,0,6
1.49564000009559,180,0.2,22,M,6,259.92999994196,speed,left,0.2,53,experimental,143,0.2,1,6
2.17478500003926,180,0.2,22,M,6,289.420000044629,speed,left,0.2,54,experimental,143,0.2,0,6
2.89861499983817,180,0.2,22,M,6,437.249999959022,speed,left,0.2,55,experimental,143,0.2,0,6
1.79640999995172,0,0.2,22,M,6,289.469999959692,speed,right,0.2,56,experimental,143,0.2,1,6
1.67487500002608,0,0.2,22,M,6,297.179999994114,speed,right,0.2,57,experimental,143,0.2,1,6
2.2318900001701,0,0.2,22,M,6,408.764999825507,speed,right,0.2,58,experimental,143,0.2,1,6
1.99716500006616,0,0.2,22,M,6,329.764999914914,speed,right,0.2,59,experimental,143,0.2,1,6
1.01136499992572,0,0.2,22,M,6,201.744999969378,speed,right,0.2,60,experimental,143,0.2,1,6
1.244204999879,0,0.2,22,M,6,921.79000005126,speed,right,0.2,1,experimental,143,0.2,1,6
0.320479999994859,180,0.2,22,M,6,421.344999922439,speed,left,0.2,2,experimental,143,0.2,0,6
0.240794999990612,0,0.2,22,M,6,95.4699998255819,speed,right,0.2,3,experimental,143,0.2,0,6
0.275224999990314,180,0.2,22,M,6,224.644999951124,speed,left,0.2,4,experimental,143,0.2,0,6
0.376340000191703,180,0.2,22,M,2,692.439999897033,speed,left,0.2,5,experimental,143,0.2,0,2
0.561239999951795,180,0.2,22,M,6,129.444999853149,speed,left,0.2,6,experimental,143,0.2,0,6
0.474739999976009,0,0.2,22,M,6,105.86000001058,speed,right,0.2,7,experimental,143,0.2,1,6
0.565734999952838,0,0.2,22,M,6,120.149999856949,speed,right,0.2,8,experimental,143,0.2,1,6
0.598204999929294,180,0.2,22,M,6,173.550000181422,speed,left,0.2,9,experimental,143,0.2,1,6
0.392370000015944,180,0.2,22,M,6,183.510000118986,speed,left,0.2,10,experimental,143,0.2,1,6
0.600820000050589,0,0.2,22,M,6,672.114999964833,speed,right,0.2,11,experimental,143,0.2,1,6
0.47209499985911,0,0.2,22,M,6,216.405000071973,speed,right,0.2,12,experimental,143,0.2,1,6
0.624094999860972,0,0.2,22,M,6,87.2249999083579,speed,right,0.2,13,experimental,143,0.2,0,6
0.568609999958426,0,0.2,22,M,6,118.155000032857,speed,right,0.2,14,experimental,143,0.2,1,6
0.756430000066757,0,0.2,22,M,6,91.9449999928474,speed,right,0.2,15,experimental,143,0.2,1,6
0.678775000153109,180,0.2,22,M,6,51.9000000786036,speed,left,0.2,16,experimental,143,0.2,1,6
1.00257000001147,0,0.2,22,M,6,1724.95000017807,speed,right,0.2,17,experimental,143,0.2,1,6
0.702840000158176,0,0.2,22,M,6,362.604999914765,speed,right,0.2,18,experimental,143,0.2,0,6
0.31211999990046,180,0.2,22,M,6,111.024999991059,speed,left,0.2,19,experimental,143,0.2,0,6
0.619925000006333,180,0.2,22,M,6,147.970000049099,speed,left,0.2,20,experimental,143,0.2,0,6
0.354164999909699,180,0.2,22,M,6,96.1949999909848,speed,left,0.2,21,experimental,143,0.2,0,6
0.547444999916479,180,0.2,22,M,6,87.2250001411885,speed,left,0.2,22,experimental,143,0.2,0,6
0.364915000041947,180,0.2,22,M,6,120.050000026822,speed,left,0.2,23,experimental,143,0.2,1,6
0.483809999888763,0,0.2,22,M,6,73.3849999960512,speed,right,0.2,24,experimental,143,0.2,1,6
0.440154999960214,180,0.2,22,M,1,879.485000157729,speed,left,0.2,25,experimental,143,0.2,0,1
0.497789999935776,0,0.2,22,M,6,251.605000114068,speed,right,0.2,26,experimental,143,0.2,1,6
0.457754999864846,0,0.2,22,M,6,77.8450001962483,speed,right,0.2,27,experimental,143,0.2,1,6
0.539860000135377,0,0.2,22,M,6,95.424999948591,speed,right,0.2,28,experimental,143,0.2,1,6
0.721454999875277,0,0.2,22,M,6,76.9899999722838,speed,right,0.2,29,experimental,143,0.2,1,6
0.514725000131875,180,0.2,22,M,6,155.379999894649,speed,left,0.2,30,experimental,143,0.2,0,6
0.553790000034496,0,0.2,22,M,6,100.090000079945,speed,right,0.2,31,experimental,143,0.2,0,6
0.467739999992773,0,0.2,22,M,6,82.2799999732524,speed,right,0.2,32,experimental,143,0.2,1,6
0.560075000161305,180,0.2,22,M,6,123.464999953285,speed,left,0.2,33,experimental,143,0.2,1,6
0.563395000062883,180,0.2,22,M,6,97.1750000026077,speed,left,0.2,34,experimental,143,0.2,0,6
0.619369999971241,180,0.2,22,M,6,105.555000016466,speed,left,0.2,35,experimental,143,0.2,0,6
0.586429999908432,180,0.2,22,M,6,116.290000034496,speed,left,0.2,36,experimental,143,0.2,1,6
0.532485000090674,180,0.2,22,M,6,91.3050000090152,speed,left,0.2,37,experimental,143,0.2,0,6
0.580019999993965,0,0.2,22,M,6,87.7049998380244,speed,right,0.2,38,experimental,143,0.2,1,6
0.443475000094622,0,0.2,22,M,6,86.7300000973046,speed,right,0.2,39,experimental,143,0.2,1,6
0.418234999990091,180,0.2,22,M,6,122.634999919683,speed,left,0.2,40,experimental,143,0.2,0,6
0.59247999987565,180,0.2,22,M,6,133.440000005066,speed,left,0.2,41,experimental,143,0.2,1,6
0.433675000211224,180,0.2,22,M,6,108.869999879971,speed,left,0.2,42,experimental,143,0.2,0,6
0.664690000005066,0,0.2,22,M,6,87.2899999376386,speed,right,0.2,43,experimental,143,0.2,1,6
0.810344999888912,180,0.2,22,M,6,78.8650000467896,speed,left,0.2,44,experimental,143,0.2,1,6
1.70971000008285,180,0.2,22,M,6,72.0449998043478,speed,left,0.2,45,experimental,143,0.2,0,6
0.755855000112206,0,0.2,22,M,6,41.8449998833239,speed,right,0.2,46,experimental,143,0.2,1,6
1.26844000001438,0,0.2,22,M,6,110.485000070184,speed,right,0.2,47,experimental,143,0.2,1,6
0.805565000046045,0,0.2,22,M,6,82.5100000947714,speed,right,0.2,48,experimental,143,0.2,1,6
1.17798499995843,0,0.2,22,M,6,68.1149999145418,speed,right,0.2,49,experimental,143,0.2,1,6
1.67851999984123,180,0.2,22,M,6,79.1150000877678,speed,left,0.2,50,experimental,143,0.2,0,6
1.21659999992698,0,0.2,22,M,6,115.244999993593,speed,right,0.2,51,experimental,143,0.2,1,6
0.870735000120476,180,0.2,22,M,6,118.954999838024,speed,left,0.2,52,experimental,143,0.2,1,6
0.554025000194088,0,0.2,22,M,6,160.634999861941,speed,right,0.2,53,experimental,143,0.2,1,6
1.13840499985963,180,0.2,22,M,6,105.679999804124,speed,left,0.2,54,experimental,143,0.2,1,6
1.49108499987051,180,0.2,22,M,6,104.455000022426,speed,left,0.2,55,experimental,143,0.2,0,6
1.23974499991164,180,0.2,22,M,6,59.8999999929219,speed,left,0.2,56,experimental,143,0.2,0,6
1.05394999985583,0,0.2,22,M,6,55.5050000548363,speed,right,0.2,57,experimental,143,0.2,1,6
1.01569499983452,180,0.2,22,M,6,68.6749999877065,speed,left,0.2,58,experimental,143,0.2,0,6
0.549829999916255,0,0.2,22,M,6,51.6000001225621,speed,right,0.2,59,experimental,143,0.2,1,6
0.444475000025705,0,0.2,22,M,6,56.2149998731911,speed,right,0.2,60,experimental,143,0.2,1,6
0.988734999904409,0,0.2,22,M,5,2775.58499993756,speed,right,0.2,1,experimental,143,0.2,1,5
2.92231500009075,180,0.2,22,M,6,722.09500009194,speed,left,0.2,2,experimental,143,0.2,1,6
-0.001,0,0.2,22,M,6,1750.68000005558,speed,right,0.2,3,experimental,143,0.2,0,6
3.01817499985918,0,0.2,22,M,6,338.620000053197,speed,right,0.2,4,experimental,143,0.2,0,6
2.45273000001907,0,0.2,22,M,6,412.645000033081,speed,right,0.2,5,experimental,143,0.2,1,6
2.12009500013664,180,0.2,22,M,6,362.570000113919,speed,left,0.2,6,experimental,143,0.2,0,6
1.37912500021048,0,0.2,22,M,6,315.034999977797,speed,right,0.2,7,experimental,143,0.2,1,6
0.707880000118166,180,0.2,22,M,6,440.835000015795,speed,left,0.2,8,experimental,143,0.2,1,6
1.0094050001353,180,0.2,22,M,6,204.709999961779,speed,left,0.2,9,experimental,143,0.2,1,6
1.53860999993049,180,0.2,22,M,6,130.009999964386,speed,left,0.2,10,experimental,143,0.2,0,6
1.32632500003092,0,0.2,22,M,6,114.449999993667,speed,right,0.2,11,experimental,143,0.2,1,6
1.5944450001698,180,0.2,22,M,6,96.9149998854846,speed,left,0.2,12,experimental,143,0.2,1,6
0.98560499981977,0,0.2,22,M,6,146.345000015572,speed,right,0.2,13,experimental,143,0.2,1,6
1.98023999994621,0,0.2,22,M,6,58.9399999007583,speed,right,0.2,14,experimental,143,0.2,1,6
1.49910499993712,180,0.2,22,M,6,148.084999993443,speed,left,0.2,15,experimental,143,0.2,0,6
1.49272500001825,180,0.2,22,M,6,175.49500009045,speed,left,0.2,16,experimental,143,0.2,0,6
1.37312499992549,180,0.2,22,M,6,198.859999887645,speed,left,0.2,17,experimental,143,0.2,0,6
1.55870999977924,0,0.2,22,M,6,367.675000103191,speed,right,0.2,18,experimental,143,0.2,1,6
1.33609999995679,0,0.2,22,M,6,118.789999978617,speed,right,0.2,19,experimental,143,0.2,1,6
1.54103500000201,180,0.2,22,M,6,119.41000004299,speed,left,0.2,20,experimental,143,0.2,0,6
0.831714999862015,0,0.2,22,M,6,115.115000167862,speed,right,0.2,21,experimental,143,0.2,1,6
0.922000000020489,0,0.2,22,M,6,111.215000040829,speed,right,0.2,22,experimental,143,0.2,1,6
0.998420000076294,180,0.2,22,M,6,106.195000000298,speed,left,0.2,23,experimental,143,0.2,0,6
1.06765999994241,180,0.2,22,M,6,87.6750000752509,speed,left,0.2,24,experimental,143,0.2,0,6
0.928439999930561,180,0.2,22,M,6,138.305000029504,speed,left,0.2,25,experimental,143,0.2,1,6
0.806264999788254,180,0.2,22,M,6,119.345000013709,speed,left,0.2,26,experimental,143,0.2,0,6
0.69059000001289,0,0.2,22,M,6,63.7900000438094,speed,right,0.2,27,experimental,143,0.2,1,6
0.64214999997057,0,0.2,22,M,6,175.740000093356,speed,right,0.2,28,experimental,143,0.2,1,6
1.19644000008702,0,0.2,22,M,6,120.720000006258,speed,right,0.2,29,experimental,143,0.2,1,6
4.14416499994695,180,0.2,22,M,6,430.649999994785,speed,left,0.2,30,experimental,143,0.2,0,6
0.807180000003427,180,0.2,22,M,6,482.964999973774,speed,left,0.2,31,experimental,143,0.2,0,6
0.847185000078753,0,0.2,22,M,6,212.085000006482,speed,right,0.2,32,experimental,143,0.2,1,6
1.80795000004582,0,0.2,22,M,6,289.99499999918,speed,right,0.2,33,experimental,143,0.2,0,6
1.12822999991477,180,0.2,22,M,6,157.154999906197,speed,left,0.2,34,experimental,143,0.2,1,6
0.943604999920353,180,0.2,22,M,6,141.770000103861,speed,left,0.2,35,experimental,143,0.2,0,6
0.996014999924228,0,0.2,22,M,6,123.675000155345,speed,right,0.2,36,experimental,143,0.2,1,6
1.32198500004597,0,0.2,22,M,6,78.4999998286366,speed,right,0.2,37,experimental,143,0.2,1,6
2.23311499995179,180,0.2,22,M,6,82.8899999614805,speed,left,0.2,38,experimental,143,0.2,1,6
1.02257500006817,180,0.2,22,M,6,78.5650000907481,speed,left,0.2,39,experimental,143,0.2,0,6
1.35367499990389,0,0.2,22,M,6,105.379999848083,speed,right,0.2,40,experimental,143,0.2,1,6
0.993059999775141,180,0.2,22,M,6,99.0499998442829,speed,left,0.2,41,experimental,143,0.2,0,6
2.08242999995127,180,0.2,22,M,6,94.7249999735504,speed,left,0.2,42,experimental,143,0.2,0,6
1.38543499982916,0,0.2,22,M,6,78.2549998257309,speed,right,0.2,43,experimental,143,0.2,1,6
1.67245499999262,0,0.2,22,M,6,91.5349998977035,speed,right,0.2,44,experimental,143,0.2,0,6
1.84592500003055,180,0.2,22,M,6,110.62499997206,speed,left,0.2,45,experimental,143,0.2,1,6
1.00598999997601,180,0.2,22,M,6,162.509999936447,speed,left,0.2,46,experimental,143,0.2,1,6
3.02329499996267,0,0.2,22,M,6,120.74499996379,speed,right,0.2,47,experimental,143,0.2,1,6
1.86049999995157,0,0.2,22,M,6,151.564999949187,speed,right,0.2,48,experimental,143,0.2,1,6
1.54129000008106,0,0.2,22,M,6,129.914999939501,speed,right,0.2,49,experimental,143,0.2,1,6
1.35334999999031,180,0.2,22,M,6,157.589999958873,speed,left,0.2,50,experimental,143,0.2,1,6
1.6042750000488,180,0.2,22,M,6,136.050000088289,speed,left,0.2,51,experimental,143,0.2,0,6
1.43697999999858,0,0.2,22,M,6,142.709999810904,speed,right,0.2,52,experimental,143,0.2,1,6
2.98407000000589,0,0.2,22,M,6,153.865000000224,speed,right,0.2,53,experimental,143,0.2,1,6
1.27269500005059,180,0.2,22,M,6,101.425000000745,speed,left,0.2,54,experimental,143,0.2,1,6
1.59058000007644,180,0.2,22,M,6,87.305000051856,speed,left,0.2,55,experimental,143,0.2,0,6
1.28134500002488,0,0.2,22,M,6,110.134999966249,speed,right,0.2,56,experimental,143,0.2,1,6
1.10850500012748,0,0.2,22,M,6,138.464999850839,speed,right,0.2,57,experimental,143,0.2,1,6
1.97103499993682,180,0.2,22,M,6,114.910000003874,speed,left,0.2,58,experimental,143,0.2,0,6
1.33732499997132,180,0.2,22,M,6,110.994999995455,speed,left,0.2,59,experimental,143,0.2,0,6
2.34165000007488,0,0.2,22,M,6,122.979999985546,speed,right,0.2,60,experimental,143,0.2,1,6
0.53792000003159,180,0.2,22,M,6,1703.99999991059,speed,left,0.2,1,experimental,143,0.2,1,6
0.512480000033975,0,0.2,22,M,6,199.710000073537,speed,right,0.2,2,experimental,143,0.2,1,6
0.43362500006333,0,0.2,22,M,6,97.4700001534075,speed,right,0.2,3,experimental,143,0.2,1,6
0.317905000178143,180,0.2,22,M,6,59.2049998231232,speed,left,0.2,4,experimental,143,0.2,0,6
0.208894999930635,0,0.2,22,M,6,42.189999949187,speed,right,0.2,5,experimental,143,0.2,0,6
0.197534999810159,0,0.2,22,M,6,17.2749999910593,speed,right,0.2,6,experimental,143,0.2,1,6
0.206204999936745,0,0.2,22,M,6,13.3400000631809,speed,right,0.2,7,experimental,143,0.2,0,6
0.14314499986358,180,0.2,22,M,6,74.5350001379848,speed,left,0.2,8,experimental,143,0.2,0,6
0.0160000000614673,180,0.2,22,M,6,165.250000078231,speed,left,0.2,9,experimental,143,0.2,1,6
0.107594999950379,0,0.2,22,M,6,4.19000000692904,speed,right,0.2,10,experimental,143,0.2,1,6
0.0915599998552352,180,0.2,22,M,6,146.805000025779,speed,left,0.2,11,experimental,143,0.2,1,6
0.154735000105575,180,0.2,22,M,6,149.784999899566,speed,left,0.2,12,experimental,143,0.2,0,6
0.00163500010967255,0,0.2,22,M,6,45.4049999825656,speed,right,0.2,13,experimental,143,0.2,0,6
0.193840000079945,0,0.2,22,M,6,166.599999880418,speed,right,0.2,14,experimental,143,0.2,1,6
0.0579049999359995,0,0.2,22,M,6,175.60000019148,speed,right,0.2,15,experimental,143,0.2,0,6
0.136789999902248,180,0.2,22,M,6,8.45499988645315,speed,left,0.2,16,experimental,143,0.2,0,6
0.0801950001623482,180,0.2,22,M,6,174.000000115484,speed,left,0.2,17,experimental,143,0.2,0,6
0.0779749997891486,180,0.2,22,M,6,160.660000052303,speed,left,0.2,18,experimental,143,0.2,0,6
0.0686999999452382,180,0.2,22,M,6,12.794999871403,speed,left,0.2,19,experimental,143,0.2,0,6
0.0201900000683963,180,0.2,22,M,6,6.67000003159046,speed,left,0.2,20,experimental,143,0.2,0,6
0.163424999918789,180,0.2,22,M,6,147.369999904186,speed,left,0.2,21,experimental,143,0.2,0,6
0.116775000002235,0,0.2,22,M,6,139.040000038221,speed,right,0.2,22,experimental,143,0.2,0,6
0.0963399999309331,0,0.2,22,M,6,44.5550000295043,speed,right,0.2,23,experimental,143,0.2,1,6
0.163134999806061,0,0.2,22,M,6,3.92000004649162,speed,right,0.2,24,experimental,143,0.2,1,6
0.254435000009835,0,0.2,22,M,6,0.054999953135848,speed,right,0.2,25,experimental,143,0.2,0,6
0.0780100000556558,180,0.2,22,M,6,160.105000017211,speed,left,0.2,26,experimental,143,0.2,0,6
0.197544999886304,0,0.2,22,M,6,18.3749999850988,speed,right,0.2,27,experimental,143,0.2,0,6
0.132560000056401,180,0.2,22,M,6,161.259999964386,speed,left,0.2,28,experimental,143,0.2,0,6
0.102394999936223,180,0.2,22,M,6,141.25999994576,speed,left,0.2,29,experimental,143,0.2,0,6
0.114980000071228,0,0.2,22,M,6,2.51500005833805,speed,right,0.2,30,experimental,143,0.2,1,6
0.0618399998638779,180,0.2,22,M,6,0.045000109821558,speed,left,0.2,31,experimental,143,0.2,0,6
0.111179999774322,0,0.2,22,M,6,123.164999997243,speed,right,0.2,32,experimental,143,0.2,1,6
0.0762149998918176,180,0.2,22,M,5,4.57999994978309,speed,left,0.2,33,experimental,143,0.2,0,5
2.99999956041574e-05,0,0.2,22,M,4,194.704999914393,speed,right,0.2,34,experimental,143,0.2,1,4
0.102524999994785,180,0.2,22,M,4,169.024999951944,speed,left,0.2,35,experimental,143,0.2,1,4
0.0924650002270937,0,0.2,22,M,4,3.81000014021993,speed,right,0.2,36,experimental,143,0.2,0,4
0.120020000031218,0,0.2,22,M,4,153.174999868497,speed,right,0.2,37,experimental,143,0.2,0,4
0.128990000113845,0,0.2,22,M,4,162.394999992102,speed,right,0.2,38,experimental,143,0.2,0,4
0.0312049998901784,0,0.2,22,M,4,32.1949999779463,speed,right,0.2,39,experimental,143,0.2,1,4
0.0609849998727441,180,0.2,22,M,4,161.764999851584,speed,left,0.2,40,experimental,143,0.2,0,4
0.160944999894127,180,0.2,22,M,4,186.135000083596,speed,left,0.2,41,experimental,143,0.2,0,4
0.077494999859482,180,0.2,22,M,4,190.015000058338,speed,left,0.2,42,experimental,143,0.2,1,4
0.17519999993965,180,0.2,22,M,4,3.93500016070902,speed,left,0.2,43,experimental,143,0.2,1,4
0.0165650001727045,180,0.2,22,M,4,23.4349998645484,speed,left,0.2,44,experimental,143,0.2,1,4
0.178294999990612,0,0.2,22,M,4,51.1900000274181,speed,right,0.2,45,experimental,143,0.2,0,4
0.369385000085458,0,0.2,22,M,4,146.745000034571,speed,right,0.2,46,experimental,143,0.2,0,4
0.0121850001160055,180,0.2,22,M,4,194.959999993443,speed,left,0.2,47,experimental,143,0.2,0,4
0.0658050000201911,0,0.2,22,M,4,204.35499981977,speed,right,0.2,48,experimental,143,0.2,1,4
0.0639350002165884,0,0.2,22,M,4,189.354999922216,speed,right,0.2,49,experimental,143,0.2,1,4
0.114509999984875,180,0.2,22,M,4,217.304999940097,speed,left,0.2,50,experimental,143,0.2,0,4
0.0547549999319017,180,0.2,22,M,4,7.35499989241362,speed,left,0.2,51,experimental,143,0.2,0,4
0.0293150001671165,180,0.2,22,M,4,135.015000123531,speed,left,0.2,52,experimental,143,0.2,1,4
0.0221899999305606,0,0.2,22,M,4,11.739999987185,speed,right,0.2,53,experimental,143,0.2,0,4
0.033399999840185,0,0.2,22,M,4,31.1549999751151,speed,right,0.2,54,experimental,143,0.2,0,4
0.0214000002015382,0,0.2,22,M,4,44.6550000924617,speed,right,0.2,55,experimental,143,0.2,0,4
0.160360000096262,180,0.2,22,M,4,198.224999941885,speed,left,0.2,56,experimental,143,0.2,1,4
0.195985000114888,0,0.2,22,M,4,161.104999948293,speed,right,0.2,57,experimental,143,0.2,1,4
0.0245399998966604,0,0.2,22,M,4,13.7650000397116,speed,right,0.2,58,experimental,143,0.2,1,4
0.0126350000500679,180,0.2,22,M,4,172.814999939874,speed,left,0.2,59,experimental,143,0.2,0,4
0.10389000014402,180,0.2,22,M,4,9.3500001821667,speed,left,0.2,60,experimental,143,0.2,1,4
1.85166499996558,180,0.2,22,M,6,458.175000036135,speed,left,0.2,1,experimental,143,0.2,0,6
3.44703999999911,180,0.2,22,M,6,495.12999993749,speed,left,0.2,2,experimental,143,0.2,1,6
1.41611499991268,180,0.2,22,M,6,216.580000007525,speed,left,0.2,3,experimental,143,0.2,0,6
0.771219999995083,0,0.2,22,M,6,165.150000015274,speed,right,0.2,4,experimental,143,0.2,1,6
0.675890000071377,180,0.2,22,M,6,96.9450001139194,speed,left,0.2,5,experimental,143,0.2,1,6
0.568224999820814,0,0.2,22,M,6,133.424999890849,speed,right,0.2,6,experimental,143,0.2,1,6
0.674445000011474,0,0.2,22,M,6,82.145000109449,speed,right,0.2,7,experimental,143,0.2,1,6
0.433489999966696,180,0.2,22,M,6,142.379999859259,speed,left,0.2,8,experimental,143,0.2,0,6
0.829900000011548,180,0.2,22,M,6,65.1000000070781,speed,left,0.2,9,experimental,143,0.2,1,6
1.09314500004984,0,0.2,22,M,6,100.730000063777,speed,right,0.2,10,experimental,143,0.2,1,6
0.664095000131056,0,0.2,22,M,6,225.474999984726,speed,right,0.2,11,experimental,143,0.2,0,6
0.748674999922514,0,0.2,22,M,6,141.610000049695,speed,right,0.2,12,experimental,143,0.2,1,6
0.678739999886602,180,0.2,22,M,6,109.10000000149,speed,left,0.2,13,experimental,143,0.2,0,6
0.926020000129938,180,0.2,22,M,6,115.370000014082,speed,left,0.2,14,experimental,143,0.2,0,6
0.767430000007153,0,0.2,22,M,6,124.34499990195,speed,right,0.2,15,experimental,143,0.2,1,6
0.872454999946058,0,0.2,22,M,6,35.535000031814,speed,right,0.2,16,experimental,143,0.2,1,6
0.526055000023916,0,0.2,22,M,6,45.8849999122322,speed,right,0.2,17,experimental,143,0.2,1,6
0.789459999883547,0,0.2,22,M,6,26.3699998613447,speed,right,0.2,18,experimental,143,0.2,0,6
1.98866999987513,180,0.2,22,M,6,96.4899999089539,speed,left,0.2,19,experimental,143,0.2,1,6
1.29785500001162,0,0.2,22,M,6,125.065000029281,speed,right,0.2,20,experimental,143,0.2,1,6
1.67332999990322,180,0.2,22,M,6,96.6700001154095,speed,left,0.2,21,experimental,143,0.2,1,6
1.78107500006445,180,0.2,22,M,5,437.935000052676,speed,left,0.2,22,experimental,143,0.2,1,5
2.14362999983132,0,0.2,22,M,6,124.420000007376,speed,right,0.2,23,experimental,143,0.2,0,6
1.18184500001371,180,0.2,22,M,4,412.160000065342,speed,left,0.2,24,experimental,143,0.2,0,4
1.61572499992326,180,0.2,22,M,4,151.509999996051,speed,left,0.2,25,experimental,143,0.2,1,4
0.70401500002481,0,0.2,22,M,6,129.959999816492,speed,right,0.2,26,experimental,143,0.2,1,6
1.00139000010677,0,0.2,22,M,6,525.44999984093,speed,right,0.2,27,experimental,143,0.2,1,6
0.696875000139698,180,0.2,22,M,6,477.565000066534,speed,left,0.2,28,experimental,143,0.2,0,6
1.03904499998316,0,0.2,22,M,6,397.765000117943,speed,right,0.2,29,experimental,143,0.2,1,6
0.984664999879897,0,0.2,22,M,6,376.040000002831,speed,right,0.2,30,experimental,143,0.2,1,6
0.779679999919608,180,0.2,22,M,6,196.354999905452,speed,left,0.2,31,experimental,143,0.2,1,6
0.353619999950752,0,0.2,22,M,4,562.559999991208,speed,right,0.2,32,experimental,143,0.2,0,4
1.72949999989942,180,0.2,22,M,6,344.449999975041,speed,left,0.2,33,experimental,143,0.2,0,6
0.385834999848157,0,0.2,22,M,6,336.045000003651,speed,right,0.2,34,experimental,143,0.2,1,6
0.532144999830052,180,0.2,22,M,6,60.1850000675768,speed,left,0.2,35,experimental,143,0.2,1,6
0.622715000063181,180,0.2,22,M,6,63.3850002195686,speed,left,0.2,36,experimental,143,0.2,1,6
0.373049999820068,180,0.2,22,M,6,68.7800000887364,speed,left,0.2,37,experimental,143,0.2,1,6
0.389830000000075,180,0.2,22,M,6,45.4599999357015,speed,left,0.2,38,experimental,143,0.2,1,6
0.1446050000377,0,0.2,22,M,6,115.100000053644,speed,right,0.2,39,experimental,143,0.2,0,6
0.96441000001505,0,0.2,22,M,6,124.945000046864,speed,right,0.2,40,experimental,143,0.2,1,6
3.05604499997571,180,0.2,22,M,6,77.335000038147,speed,left,0.2,41,experimental,143,0.2,1,6
1.12759499996901,0,0.2,22,M,6,120.069999946281,speed,right,0.2,42,experimental,143,0.2,1,6
1.67077500000596,180,0.2,22,M,6,92.1650000382215,speed,left,0.2,43,experimental,143,0.2,1,6
1.03245999990031,0,0.2,22,M,6,116.020000074059,speed,right,0.2,44,experimental,143,0.2,1,6
0.709930000128224,0,0.2,22,M,6,55.5000000167638,speed,right,0.2,45,experimental,143,0.2,0,6
2.36584999994375,180,0.2,22,M,6,72.8599999565631,speed,left,0.2,46,experimental,143,0.2,1,6
1.49618999985978,0,0.2,22,M,6,138.524999842048,speed,right,0.2,47,experimental,143,0.2,1,6
0.893084999872372,180,0.2,22,M,6,50.0450001563877,speed,left,0.2,48,experimental,143,0.2,1,6
1.6508249999024,180,0.2,22,M,6,100.744999945164,speed,left,0.2,49,experimental,143,0.2,0,6
0.986819999990985,180,0.2,22,M,6,46.4200000278652,speed,left,0.2,50,experimental,143,0.2,1,6
1.47827999992296,180,0.2,22,M,6,92.8150000981987,speed,left,0.2,51,experimental,143,0.2,0,6
2.52759999991395,180,0.2,22,M,6,76.38999982737,speed,left,0.2,52,experimental,143,0.2,1,6
1.43762500002049,0,0.2,22,M,6,146.589999785647,speed,right,0.2,53,experimental,143,0.2,1,6
1.14088000007905,0,0.2,22,M,6,207.8249999322,speed,right,0.2,54,experimental,143,0.2,0,6
0.504995000082999,0,0.2,22,M,6,123.695000074804,speed,right,0.2,55,experimental,143,0.2,1,6
1.58161999983713,180,0.2,22,M,6,66.6049998253584,speed,left,0.2,56,experimental,143,0.2,1,6
1.0724849998951,0,0.2,22,M,6,54.4299997854978,speed,right,0.2,57,experimental,143,0.2,1,6
1.02805500011891,0,0.2,22,M,6,101.980000035837,speed,right,0.2,58,experimental,143,0.2,0,6
0.678360000019893,0,0.2,22,M,5,183.469999814406,speed,right,0.2,59,experimental,143,0.2,1,5
0.874895000131801,180,0.2,22,M,6,68.595000077039,speed,left,0.2,60,experimental,143,0.2,1,6
0.0554499998688698,0,0.2,22,M,4,9.15000005625188,speed,right,0.2,1,experimental,143,0.2,0,4
0.00331000005826354,180,0.2,22,M,4,69.2600000184029,speed,left,0.2,2,experimental,143,0.2,1,4
0.0906350000295788,180,0.2,22,M,4,124.744999920949,speed,left,0.2,3,experimental,143,0.2,0,4
0.0492449998855591,180,0.2,22,M,4,7.62000004760921,speed,left,0.2,4,experimental,143,0.2,0,4
0.0743299999739975,0,0.2,22,M,4,102.019999874756,speed,right,0.2,5,experimental,143,0.2,0,4
0.0453900001011789,0,0.2,22,M,4,149.300000164658,speed,right,0.2,6,experimental,143,0.2,0,4
0.129350000061095,180,0.2,22,M,4,72.904999833554,speed,left,0.2,7,experimental,143,0.2,1,4
0.0848950000945479,0,0.2,22,M,4,72.6250000298023,speed,right,0.2,8,experimental,143,0.2,0,4
0.0239699999801815,180,0.2,22,M,4,126.210000133142,speed,left,0.2,9,experimental,143,0.2,0,4
0.016899999929592,0,0.2,22,M,4,17.6900001242757,speed,right,0.2,10,experimental,143,0.2,1,4
0.0236949999816716,0,0.2,22,M,4,2.76000006124377,speed,right,0.2,11,experimental,143,0.2,1,4
0.154524999903515,180,0.2,22,M,4,9.48000000789762,speed,left,0.2,12,experimental,143,0.2,0,4
0.266779999947175,180,0.2,22,M,4,110.765000106767,speed,left,0.2,13,experimental,143,0.2,1,4
0.109949999954551,180,0.2,22,M,4,153.430000180379,speed,left,0.2,14,experimental,143,0.2,1,4
0.0845050001516938,0,0.2,22,M,4,22.2800001502037,speed,right,0.2,15,experimental,143,0.2,0,4
0.1164249998983,0,0.2,22,M,4,171.175000024959,speed,right,0.2,16,experimental,143,0.2,0,4
0.018625000026077,180,0.2,22,M,4,272.465000161901,speed,left,0.2,17,experimental,143,0.2,1,4
0.0368149999994785,180,0.2,22,M,4,3.50999995134771,speed,left,0.2,18,experimental,143,0.2,1,4
0.0535450000315905,0,0.2,22,M,4,173.130000010133,speed,right,0.2,19,experimental,143,0.2,0,4
0.0784549999516457,0,0.2,22,M,4,124.425000045449,speed,right,0.2,20,experimental,143,0.2,0,4
0.0900799999944866,180,0.2,22,M,4,7.51000014133751,speed,left,0.2,21,experimental,143,0.2,1,4
0.139574999921024,0,0.2,22,M,4,13.2999999914318,speed,right,0.2,22,experimental,143,0.2,1,4
0.157104999991134,0,0.2,22,M,4,132.985000032932,speed,right,0.2,23,experimental,143,0.2,1,4
0.145484999986365,180,0.2,22,M,4,8.92500020563602,speed,left,0.2,24,experimental,143,0.2,0,4
0.0717450000811368,180,0.2,22,M,4,165.915000019595,speed,left,0.2,25,experimental,143,0.2,0,4
0.295135000022128,180,0.2,22,M,4,40.0650000665337,speed,left,0.2,26,experimental,143,0.2,0,4
0.139845000114292,180,0.2,22,M,4,175.655000144616,speed,left,0.2,27,experimental,143,0.2,0,4
0.0625,180,0.2,22,M,4,144.444999983534,speed,left,0.2,28,experimental,143,0.2,0,4
0.0577599999960512,0,0.2,22,M,4,200.835000025108,speed,right,0.2,29,experimental,143,0.2,1,4
0.010550000006333,0,0.2,22,M,4,13.0849999841303,speed,right,0.2,30,experimental,143,0.2,1,4
0.0133949997834861,0,0.2,22,M,4,21.1050000507385,speed,right,0.2,31,experimental,143,0.2,0,4
0.077070000115782,0,0.2,22,M,4,64.8550000041723,speed,right,0.2,32,experimental,143,0.2,0,4
0.149555000010878,180,0.2,22,M,4,22.1349999774247,speed,left,0.2,33,experimental,143,0.2,1,4
0.149089999962598,0,0.2,22,M,4,45.3749999869615,speed,right,0.2,34,experimental,143,0.2,0,4
0.119290000060573,180,0.2,22,M,4,214.754999848083,speed,left,0.2,35,experimental,143,0.2,1,4
0.189190000062808,0,0.2,22,M,4,51.3400000054389,speed,right,0.2,36,experimental,143,0.2,0,4
0.149130000034347,180,0.2,22,M,4,31.3450000248849,speed,left,0.2,37,experimental,143,0.2,1,4
0.133069999981672,180,0.2,22,M,4,64.8399998899549,speed,left,0.2,38,experimental,143,0.2,1,4
0.123914999887347,180,0.2,22,M,4,69.4500000681728,speed,left,0.2,39,experimental,143,0.2,1,4
0.0289499999489635,0,0.2,22,M,4,12.4649999197572,speed,right,0.2,40,experimental,143,0.2,0,4
0.0238200000021607,180,0.2,22,M,4,6.2049999833107,speed,left,0.2,41,experimental,143,0.2,1,4
0.161730000050738,0,0.2,22,M,4,36.3449999131262,speed,right,0.2,42,experimental,143,0.2,0,4
0.134705000091344,0,0.2,22,M,4,189.234999939799,speed,right,0.2,43,experimental,143,0.2,0,4
0.00118999998085201,0,0.2,22,M,4,40.6049999874085,speed,right,0.2,44,experimental,143,0.2,0,4
0.020930000115186,180,0.2,22,M,4,49.1000001784414,speed,left,0.2,45,experimental,143,0.2,1,4
0.179675000021234,180,0.2,22,M,4,186.585000017658,speed,left,0.2,46,experimental,143,0.2,1,4
0.00299499998800457,0,0.2,22,M,4,136.780000058934,speed,right,0.2,47,experimental,143,0.2,1,4
7.99999106675386e-05,0,0.2,22,M,4,14.1450001392514,speed,right,0.2,48,experimental,143,0.2,1,4
0.163505000062287,0,0.2,22,M,4,12.2650000266731,speed,right,0.2,49,experimental,143,0.2,1,4
0.00944500020705163,180,0.2,22,M,4,152.504999889061,speed,left,0.2,50,experimental,143,0.2,0,4
0.00841999985277653,180,0.2,22,M,4,2.33000004664063,speed,left,0.2,51,experimental,143,0.2,1,4
0.0704300000797957,0,0.2,22,M,4,8.97999992594123,speed,right,0.2,52,experimental,143,0.2,0,4
0.101505000144243,180,0.2,22,M,4,165.315000107512,speed,left,0.2,53,experimental,143,0.2,1,4
0.11054000002332,0,0.2,22,M,4,13.6400000192225,speed,right,0.2,54,experimental,143,0.2,0,4
0.118699999991804,0,0.2,22,M,5,171.420000027865,speed,right,0.2,55,experimental,143,0.2,0,5
0.136015000054613,0,0.2,22,M,4,159.46999983862,speed,right,0.2,56,experimental,143,0.2,0,4
0.151919999858364,180,0.2,22,M,4,15.8999999985099,speed,left,0.2,57,experimental,143,0.2,1,4
0.163650000002235,0,0.2,22,M,4,45.285000000149,speed,right,0.2,58,experimental,143,0.2,0,4
0.0431850000750273,180,0.2,22,M,4,81.9850000552833,speed,left,0.2,59,experimental,143,0.2,1,4
0.0996900000609457,180,0.2,22,M,4,8.7500000372529,speed,left,0.2,60,experimental,143,0.2,1,4
2.84999499982223,180,0.2,22,M,4,1450.71500004269,speed,left,0.2,1,experimental,143,0.2,0,4
1.95769500010647,0,0.2,22,M,5,754.579999949783,speed,right,0.2,2,experimental,143,0.2,1,5
1.03970999992453,0,0.2,22,M,5,293.70000003837,speed,right,0.2,3,experimental,143,0.2,1,5
1.04819999984466,0,0.2,22,M,5,283.915000036359,speed,right,0.2,4,experimental,143,0.2,0,5
1.63849999988452,180,0.2,22,M,5,338.920000009239,speed,left,0.2,5,experimental,143,0.2,0,5
1.19257000018843,180,0.2,22,M,5,188.964999979362,speed,left,0.2,6,experimental,143,0.2,0,5
1.16745000006631,0,0.2,22,M,4,444.80499997735,speed,right,0.2,7,experimental,143,0.2,1,4
0.944540000054985,0,0.2,22,M,5,324.400000041351,speed,right,0.2,8,experimental,143,0.2,1,5
0.822485000127926,180,0.2,22,M,4,479.744999902323,speed,left,0.2,9,experimental,143,0.2,0,4
1.76362999994308,180,0.2,22,M,4,601.374999852851,speed,left,0.2,10,experimental,143,0.2,1,4
2.97472500009462,180,0.2,22,M,4,506.029999814928,speed,left,0.2,11,experimental,143,0.2,0,4
1.00680499989539,0,0.2,22,M,5,405.550000024959,speed,right,0.2,12,experimental,143,0.2,1,5
1.63459500018507,0,0.2,22,M,4,482.289999956265,speed,right,0.2,13,experimental,143,0.2,1,4
1.49003500002436,180,0.2,22,M,5,524.095000000671,speed,left,0.2,14,experimental,143,0.2,0,5
1.24960999982432,180,0.2,22,M,5,330.649999901652,speed,left,0.2,15,experimental,143,0.2,1,5
1.48685500002466,180,0.2,22,M,5,540.250000078231,speed,left,0.2,16,experimental,143,0.2,1,5
2.71833000006154,180,0.2,22,M,4,730.189999798313,speed,left,0.2,17,experimental,143,0.2,1,4
1.64387000002898,180,0.2,22,M,5,472.290000179783,speed,left,0.2,18,experimental,143,0.2,1,5
2.01023000013083,0,0.2,22,M,5,225.16499995254,speed,right,0.2,19,experimental,143,0.2,1,5
3.10961499996483,0,0.2,22,M,5,325.000000186265,speed,right,0.2,20,experimental,143,0.2,1,5
1.50389000005089,0,0.2,22,M,5,390.369999920949,speed,right,0.2,21,experimental,143,0.2,1,5
1.10691000008956,0,0.2,22,M,5,105.104999849573,speed,right,0.2,22,experimental,143,0.2,1,5
1.46123000001535,0,0.2,22,M,5,95.6049999222159,speed,right,0.2,23,experimental,143,0.2,1,5
1.09984000003897,180,0.2,22,M,5,73.7050001043826,speed,left,0.2,24,experimental,143,0.2,0,5
1.0540050000418,0,0.2,22,M,5,198.039999930188,speed,right,0.2,25,experimental,143,0.2,1,5
0.781919999979436,0,0.2,22,M,5,69.2749998997897,speed,right,0.2,26,experimental,143,0.2,1,5
1.00982500007376,180,0.2,22,M,5,111.315000103787,speed,left,0.2,27,experimental,143,0.2,0,5
0.428899999940768,180,0.2,22,M,5,46.2650000117719,speed,left,0.2,28,experimental,143,0.2,0,5
0.427154999924824,0,0.2,22,M,5,105.970000149682,speed,right,0.2,29,experimental,143,0.2,1,5
0.461744999978691,0,0.2,22,M,5,36.4300000946969,speed,right,0.2,30,experimental,143,0.2,1,5
0.30934499995783,180,0.2,22,M,5,77.4749999400228,speed,left,0.2,31,experimental,143,0.2,0,5
0.762905000010505,180,0.2,22,M,5,46.9500001054257,speed,left,0.2,32,experimental,143,0.2,0,5
0.691370000131428,0,0.2,22,M,5,46.0150002036244,speed,right,0.2,33,experimental,143,0.2,1,5
0.487800000002608,0,0.2,22,M,5,41.2099999375641,speed,right,0.2,34,experimental,143,0.2,1,5
2.14914000011049,180,0.2,22,M,5,55.3400001954287,speed,left,0.2,35,experimental,143,0.2,1,5
1.90413499996066,180,0.2,22,M,5,74.2099999915808,speed,left,0.2,36,experimental,143,0.2,0,5
1.48046000022441,180,0.2,22,M,5,363.265000050887,speed,left,0.2,37,experimental,143,0.2,0,5
1.94109499990009,180,0.2,22,M,5,52.4100000038743,speed,left,0.2,38,experimental,143,0.2,0,5
1.94479499990121,0,0.2,22,M,5,331.320000113919,speed,right,0.2,39,experimental,143,0.2,1,5
0.513485000003129,180,0.2,22,M,5,500.19000004977,speed,left,0.2,40,experimental,143,0.2,1,5
1.55887000006624,0,0.2,22,M,5,114.060000050813,speed,right,0.2,41,experimental,143,0.2,1,5
1.68758499994874,180,0.2,22,M,5,128.165000118315,speed,left,0.2,42,experimental,143,0.2,1,5
1.9650650001131,180,0.2,22,M,5,95.3849998768419,speed,left,0.2,43,experimental,143,0.2,0,5
1.73922999994829,0,0.2,22,M,5,155.384999932721,speed,right,0.2,44,experimental,143,0.2,1,5
1.91935000009835,0,0.2,22,M,5,82.7699999790639,speed,right,0.2,45,experimental,143,0.2,1,5
1.83802500017919,180,0.2,22,M,5,96.6399998869747,speed,left,0.2,46,experimental,143,0.2,1,5
1.74059500009753,0,0.2,22,M,5,110.950000118464,speed,right,0.2,47,experimental,143,0.2,1,5
2.23818499990739,0,0.2,22,M,5,108.10500010848,speed,right,0.2,48,experimental,143,0.2,1,5
1.47918000002392,0,0.2,22,M,5,100.815000012517,speed,right,0.2,49,experimental,143,0.2,1,5
2.30637999996543,180,0.2,22,M,5,109.62999984622,speed,left,0.2,50,experimental,143,0.2,0,5
1.15986000001431,0,0.2,22,M,5,37.5350001268089,speed,right,0.2,51,experimental,143,0.2,1,5
1.46822499996051,180,0.2,22,M,5,114.954999880865,speed,left,0.2,52,experimental,143,0.2,0,5
1.56978000001982,0,0.2,22,M,5,105.009999824688,speed,right,0.2,53,experimental,143,0.2,1,5
1.6450299997814,180,0.2,22,M,5,189.699999988079,speed,left,0.2,54,experimental,143,0.2,0,5
1.85538000008091,180,0.2,22,M,5,146.160000003874,speed,left,0.2,55,experimental,143,0.2,0,5
1.65589999989606,0,0.2,22,M,5,65.2249997947365,speed,right,0.2,56,experimental,143,0.2,1,5
0.792879999848083,180,0.2,22,M,5,82.9300000332296,speed,left,0.2,57,experimental,143,0.2,0,5
1.29031000006944,0,0.2,22,M,5,110.219999914989,speed,right,0.2,58,experimental,143,0.2,1,5
1.7142350000795,180,0.2,22,M,5,119.429999962449,speed,left,0.2,59,experimental,143,0.2,1,5
1.64132499997504,0,0.2,22,M,5,1990.90000009164,speed,right,0.2,60,experimental,143,0.2,1,5
1.34716499999922,0,0.5,22,M,-1,-1,speed,right,0.5,1,training_1,142,0.5,1,-1
0.516604999997071,0,0.5,22,M,-1,-1,speed,right,0.5,2,training_1,142,0.5,1,-1
0.461509999993723,0,0.5,22,M,-1,-1,speed,right,0.5,3,training_1,142,0.5,1,-1
0.693809999997029,180,0.5,22,M,-1,-1,speed,left,0.5,4,training_1,142,0.5,1,-1
0.411964999992051,180,0.5,22,M,-1,-1,speed,left,0.5,5,training_1,142,0.5,1,-1
0.50895999999193,180,0.5,22,M,-1,-1,speed,left,0.5,6,training_1,142,0.5,1,-1
0.464959999997518,180,0.5,22,M,-1,-1,speed,left,0.5,7,training_1,142,0.5,1,-1
0.402730000001611,0,0.5,22,M,-1,-1,speed,right,0.5,8,training_1,142,0.5,1,-1
1.67497999999614,0,0.5,22,M,-1,-1,speed,right,0.5,9,training_1,142,0.5,1,-1
0.442570000013802,180,0.5,22,M,-1,-1,speed,left,0.5,10,training_1,142,0.5,1,-1
0.503394999992452,180,0.5,22,M,-1,-1,speed,left,0.5,11,training_1,142,0.5,1,-1
0.535289999999804,0,0.5,22,M,-1,-1,speed,right,0.5,12,training_1,142,0.5,1,-1
0.579469999996945,180,0.5,22,M,-1,-1,speed,left,0.5,13,training_1,142,0.5,1,-1
0.586014999993495,180,0.5,22,M,-1,-1,speed,left,0.5,14,training_1,142,0.5,1,-1
0.522979999994277,0,0.5,22,M,-1,-1,speed,right,0.5,15,training_1,142,0.5,1,-1
0.552419999992708,0,0.5,22,M,-1,-1,speed,right,0.5,16,training_1,142,0.5,1,-1
0.485524999996414,180,0.5,22,M,-1,-1,speed,left,0.5,17,training_1,142,0.5,1,-1
0.511630000008154,180,0.5,22,M,-1,-1,speed,left,0.5,18,training_1,142,0.5,1,-1
0.441860000006272,0,0.5,22,M,-1,-1,speed,right,0.5,19,training_1,142,0.5,1,-1
0.410195000004023,0,0.5,22,M,-1,-1,speed,right,0.5,20,training_1,142,0.5,1,-1
0.516705000001821,0,0.5,22,M,-1,-1,speed,right,0.5,21,training_1,142,0.5,1,-1
0.402665000001434,0,0.5,22,M,-1,-1,speed,right,0.5,22,training_1,142,0.5,1,-1
0.513135000001057,180,0.5,22,M,-1,-1,speed,left,0.5,23,training_1,142,0.5,1,-1
0.784645000007004,180,0.5,22,M,-1,-1,speed,left,0.5,24,training_1,142,0.5,1,-1
0.645250000001397,0,0.2,22,M,-1,-1,speed,right,0.2,1,training_2,142,0.2,1,-1
0.49326000000292,0,0.2,22,M,-1,-1,speed,right,0.2,2,training_2,142,0.2,1,-1
0.554804999992484,180,0.2,22,M,-1,-1,speed,left,0.2,3,training_2,142,0.2,1,-1
0.607149999996182,0,0.2,22,M,-1,-1,speed,right,0.2,4,training_2,142,0.2,1,-1
0.391230000008363,180,0.2,22,M,-1,-1,speed,left,0.2,5,training_2,142,0.2,1,-1
0.59387000001152,180,0.2,22,M,-1,-1,speed,left,0.2,6,training_2,142,0.2,1,-1
0.581009999994421,0,0.2,22,M,-1,-1,speed,right,0.2,7,training_2,142,0.2,1,-1
0.51845499999763,0,0.2,22,M,-1,-1,speed,right,0.2,8,training_2,142,0.2,1,-1
0.52240499999607,0,0.2,22,M,-1,-1,speed,right,0.2,9,training_2,142,0.2,0,-1
0.589035000011791,180,0.2,22,M,-1,-1,speed,left,0.2,10,training_2,142,0.2,1,-1
0.516324999989592,180,0.2,22,M,-1,-1,speed,left,0.2,11,training_2,142,0.2,1,-1
0.406765000006999,180,0.2,22,M,-1,-1,speed,left,0.2,12,training_2,142,0.2,1,-1
0.528955000001588,180,0.2,22,M,-1,-1,speed,left,0.2,13,training_2,142,0.2,1,-1
0.746750000005704,0,0.2,22,M,-1,-1,speed,right,0.2,14,training_2,142,0.2,1,-1
0.556190000002971,180,0.2,22,M,-1,-1,speed,left,0.2,15,training_2,142,0.2,1,-1
0.584089999989374,180,0.2,22,M,-1,-1,speed,left,0.2,16,training_2,142,0.2,1,-1
0.532975000009174,180,0.2,22,M,-1,-1,speed,left,0.2,17,training_2,142,0.2,1,-1
0.563525000005029,0,0.2,22,M,-1,-1,speed,right,0.2,18,training_2,142,0.2,1,-1
0.523354999997537,0,0.2,22,M,-1,-1,speed,right,0.2,19,training_2,142,0.2,1,-1
0.485399999990477,0,0.2,22,M,-1,-1,speed,right,0.2,20,training_2,142,0.2,1,-1
0.435020000004442,180,0.2,22,M,-1,-1,speed,left,0.2,21,training_2,142,0.2,1,-1
0.370205000013812,0,0.2,22,M,-1,-1,speed,right,0.2,22,training_2,142,0.2,1,-1
0.497269999992568,0,0.2,22,M,-1,-1,speed,right,0.2,23,training_2,142,0.2,1,-1
0.398400000005495,180,0.2,22,M,-1,-1,speed,left,0.2,24,training_2,142,0.2,0,-1
1.31933500000741,180,0.2,22,M,6,5879.61499999801,speed,left,0.2,1,training_3,142,0.2,1,6
1.38898999999219,0,0.2,22,M,4,2343.2199999952,speed,right,0.2,2,training_3,142,0.2,1,4
0.926110000000335,180,0.2,22,M,4,1926.39999999665,speed,left,0.2,3,training_3,142,0.2,1,4
0.75616999999329,180,0.2,22,M,4,1019.20500000415,speed,left,0.2,4,training_3,142,0.2,1,4
0.99727000000712,180,0.2,22,M,6,1061.07999999949,speed,left,0.2,5,training_3,142,0.2,1,6
0.717944999996689,0,0.2,22,M,5,3286.97500000999,speed,right,0.2,6,training_3,142,0.2,1,5
0.749045000004116,180,0.2,22,M,6,1473.4899999894,speed,left,0.2,7,training_3,142,0.2,1,6
0.779370000003837,0,0.2,22,M,3,4206.17000000493,speed,right,0.2,8,training_3,142,0.2,0,3
0.878935000000638,0,0.2,22,M,5,1667.40999999456,speed,right,0.2,9,training_3,142,0.2,1,5
0.822164999990491,180,0.2,22,M,5,1189.48500000988,speed,left,0.2,10,training_3,142,0.2,1,5
0.657054999988759,0,0.2,22,M,5,2153.35999999661,speed,right,0.2,11,training_3,142,0.2,1,5
0.825370000005933,0,0.2,22,M,4,1522.49999999185,speed,right,0.2,12,training_3,142,0.2,1,4
0.780665000012959,180,0.2,22,M,6,1841.15500000189,speed,left,0.2,13,training_3,142,0.2,1,6
0.837870000003022,180,0.2,22,M,6,1605.67499999888,speed,left,0.2,14,training_3,142,0.2,1,6
1.67181499999424,180,0.2,22,M,4,2318.19000000542,speed,left,0.2,15,training_3,142,0.2,1,4
1.03516499999387,0,0.2,22,M,5,1684.26499998895,speed,right,0.2,16,training_3,142,0.2,1,5
0.674384999991162,180,0.2,22,M,5,1219.80500000063,speed,left,0.2,17,training_3,142,0.2,1,5
0.600915000002715,0,0.2,22,M,5,1342.36999999848,speed,right,0.2,18,training_3,142,0.2,1,5
0.677169999995385,0,0.2,22,M,5,2413.84000000835,speed,right,0.2,19,training_3,142,0.2,1,5
0.94522500000312,0,0.2,22,M,5,1091.1300000007,speed,right,0.2,20,training_3,142,0.2,1,5
1.48223000000871,0,0.2,22,M,4,2676.25499999849,speed,right,0.2,21,training_3,142,0.2,1,4
0.813645000001998,180,0.2,22,M,5,828.435000003083,speed,left,0.2,22,training_3,142,0.2,1,5
0.627510000005714,180,0.2,22,M,5,734.434999991208,speed,left,0.2,23,training_3,142,0.2,1,5
0.731480000002193,0,0.2,22,M,5,1205.87499999965,speed,right,0.2,24,training_3,142,0.2,1,5
0.596434999999474,0,0.2,22,M,5,1724.34499999508,speed,right,0.2,1,experimental,142,0.2,1,5
0.722810000006575,180,0.2,22,M,5,1601.28500001156,speed,left,0.2,2,experimental,142,0.2,1,5
0.67749499999627,180,0.2,22,M,1,1416.83000000194,speed,left,0.2,3,experimental,142,0.2,0,1
0.450299999996787,180,0.2,22,M,4,1653.79000001121,speed,left,0.2,4,experimental,142,0.2,1,4
0.486449999996694,0,0.2,22,M,5,1359.4599999924,speed,right,0.2,5,experimental,142,0.2,1,5
0.486624999990454,0,0.2,22,M,5,1825.49499999732,speed,right,0.2,6,experimental,142,0.2,1,5
0.490690000005998,180,0.2,22,M,5,1850.29000000213,speed,left,0.2,7,experimental,142,0.2,0,5
0.656154999989667,180,0.2,22,M,5,1701.03999999992,speed,left,0.2,8,experimental,142,0.2,1,5
0.564549999995506,0,0.2,22,M,6,2385.21500000206,speed,right,0.2,9,experimental,142,0.2,1,6
0.463334999993094,0,0.2,22,M,5,1391.39499999874,speed,right,0.2,10,experimental,142,0.2,1,5
0.415955000004033,180,0.2,22,M,4,2669.32000000088,speed,left,0.2,11,experimental,142,0.2,1,4
0.49543999999878,0,0.2,22,M,4,2380.26000000536,speed,right,0.2,12,experimental,142,0.2,1,4
0.397519999998622,0,0.2,22,M,5,1401.29999999772,speed,right,0.2,13,experimental,142,0.2,1,5
0.529590000005555,0,0.2,22,M,4,1286.35000000941,speed,right,0.2,14,experimental,142,0.2,1,4
0.485720000011497,0,0.2,22,M,5,1718.09499998926,speed,right,0.2,15,experimental,142,0.2,1,5
0.414059999995516,0,0.2,22,M,5,982.360000009066,speed,right,0.2,16,experimental,142,0.2,1,5
0.707380000007106,180,0.2,22,M,6,1148.7749999942,speed,left,0.2,17,experimental,142,0.2,1,6
0.45424500000081,180,0.2,22,M,5,816.735000000335,speed,left,0.2,18,experimental,142,0.2,0,5
0.679185000000871,0,0.2,22,M,4,2230.55500000191,speed,right,0.2,19,experimental,142,0.2,1,4
0.458445000011125,0,0.2,22,M,5,1416.31000000052,speed,right,0.2,20,experimental,142,0.2,1,5
0.551834999991115,180,0.2,22,M,5,2762.26499999757,speed,left,0.2,21,experimental,142,0.2,1,5
0.72637499999837,180,0.2,22,M,5,1242.07999999635,speed,left,0.2,22,experimental,142,0.2,1,5
0.900424999999814,180,0.2,22,M,5,1417.5350000005,speed,left,0.2,23,experimental,142,0.2,1,5
0.380034999994677,180,0.2,22,M,4,2215.24499999941,speed,left,0.2,24,experimental,142,0.2,0,4
0.540924999993877,180,0.2,22,M,5,1324.81499999994,speed,left,0.2,25,experimental,142,0.2,1,5
0.492019999990589,180,0.2,22,M,5,786.309999995865,speed,left,0.2,26,experimental,142,0.2,1,5
0.45322500000475,0,0.2,22,M,5,44.7850000055041,speed,right,0.2,27,experimental,142,0.2,0,5
1.64976999998908,0,0.2,22,M,4,3942.04999999783,speed,right,0.2,28,experimental,142,0.2,1,4
0.410839999996824,0,0.2,22,M,4,1166.29500000272,speed,right,0.2,29,experimental,142,0.2,1,4
0.638554999997723,180,0.2,22,M,6,1517.07500001066,speed,left,0.2,30,experimental,142,0.2,1,6
0.432970000008936,180,0.2,22,M,5,1454.46499998798,speed,left,0.2,31,experimental,142,0.2,1,5
0.48675500000536,0,0.2,22,M,5,1604.44999999891,speed,right,0.2,32,experimental,142,0.2,1,5
0.648025000002235,0,0.2,22,M,4,1285.5750000017,speed,right,0.2,33,experimental,142,0.2,1,4
0.717614999986836,0,0.2,22,M,4,2254.20999999915,speed,right,0.2,34,experimental,142,0.2,1,4
0.604825000002165,180,0.2,22,M,2,1624.58000000333,speed,left,0.2,35,experimental,142,0.2,0,2
0.626984999995329,180,0.2,22,M,5,1999.68999999692,speed,left,0.2,36,experimental,142,0.2,1,5
0.543319999997038,0,0.2,22,M,6,1310.45000000449,speed,right,0.2,37,experimental,142,0.2,1,6
0.628970000005211,180,0.2,22,M,5,2492.90500000643,speed,left,0.2,38,experimental,142,0.2,1,5
0.602504999988014,180,0.2,22,M,5,2077.66500000434,speed,left,0.2,39,experimental,142,0.2,1,5
0.466124999991735,0,0.2,22,M,5,1633.14499999979,speed,right,0.2,40,experimental,142,0.2,1,5
0.517610000009881,180,0.2,22,M,5,976.204999999027,speed,left,0.2,41,experimental,142,0.2,1,5
0.618375000005472,180,0.2,22,M,5,1166.06499999762,speed,left,0.2,42,experimental,142,0.2,1,5
0.854234999991604,0,0.2,22,M,4,1324.09500000358,speed,right,0.2,43,experimental,142,0.2,1,4
0.448619999995572,180,0.2,22,M,5,2300.86999999185,speed,left,0.2,44,experimental,142,0.2,1,5
0.615749999997206,0,0.2,22,M,4,1313.03499999922,speed,right,0.2,45,experimental,142,0.2,1,4
0.546954999997979,0,0.2,22,M,4,1520.36999999837,speed,right,0.2,46,experimental,142,0.2,1,4
0.486730000004172,0,0.2,22,M,5,1763.18999999785,speed,right,0.2,47,experimental,142,0.2,1,5
0.595090000002529,180,0.2,22,M,6,1233.24500001036,speed,left,0.2,48,experimental,142,0.2,1,6
0.88160500000231,180,0.2,22,M,1,2644.09499999601,speed,left,0.2,49,experimental,142,0.2,0,1
0.610910000003059,180,0.2,22,M,4,1728.75500000373,speed,left,0.2,50,experimental,142,0.2,0,4
0.466804999989108,0,0.2,22,M,5,2065.56000000273,speed,right,0.2,51,experimental,142,0.2,1,5
0.541475000005448,180,0.2,22,M,5,1024.23500000441,speed,left,0.2,52,experimental,142,0.2,1,5
0.584845000004862,0,0.2,22,M,4,1414.07500000787,speed,right,0.2,53,experimental,142,0.2,1,4
0.405935000002501,0,0.2,22,M,4,1426.61500000395,speed,right,0.2,54,experimental,142,0.2,1,4
0.528865000000224,0,0.2,22,M,4,1158.77999999793,speed,right,0.2,55,experimental,142,0.2,1,4
0.635824999990291,180,0.2,22,M,5,1242.40000000282,speed,left,0.2,56,experimental,142,0.2,1,5
0.633555000007618,180,0.2,22,M,5,2302.21500000334,speed,left,0.2,57,experimental,142,0.2,1,5
0.511454999999842,0,0.2,22,M,5,1156.39000000374,speed,right,0.2,58,experimental,142,0.2,1,5
0.591944999992847,180,0.2,22,M,5,1686.30000000121,speed,left,0.2,59,experimental,142,0.2,1,5
0.365829999995185,0,0.2,22,M,6,974.994999996852,speed,right,0.2,60,experimental,142,0.2,1,6
1.2314299999997,0,0.2,22,M,5,3391.85999998893,speed,right,0.2,1,experimental,142,0.2,1,5
0.954289999994216,0,0.2,22,M,5,1407.17500000028,speed,right,0.2,2,experimental,142,0.2,1,5
2.2687799999984,0,0.2,22,M,6,3107.39499999909,speed,right,0.2,3,experimental,142,0.2,1,6
-0.001,180,0.2,22,M,1,5895.18999999552,speed,left,0.2,4,experimental,142,0.2,0,1
0.716504999989411,180,0.2,22,M,5,2847.41999999085,speed,left,0.2,5,experimental,142,0.2,1,5
0.81427000000258,0,0.2,22,M,5,1058.10499998927,speed,right,0.2,6,experimental,142,0.2,1,5
0.582730000009295,180,0.2,22,M,5,2437.94499999774,speed,left,0.2,7,experimental,142,0.2,1,5
0.81611499999417,0,0.2,22,M,5,2678.41999999643,speed,right,0.2,8,experimental,142,0.2,1,5
0.753645000004442,0,0.2,22,M,5,1319.97999999998,speed,right,0.2,9,experimental,142,0.2,0,5
0.952149999997346,180,0.2,22,M,6,784.704999998212,speed,left,0.2,10,experimental,142,0.2,1,6
1.09807000000728,180,0.2,22,M,5,1467.16499999445,speed,left,0.2,11,experimental,142,0.2,1,5
1.21632999999542,180,0.2,22,M,4,3065.0500000047,speed,left,0.2,12,experimental,142,0.2,1,4
1.05909499998973,0,0.2,22,M,4,1398.18499999819,speed,right,0.2,13,experimental,142,0.2,0,4
1.79561000000103,0,0.2,22,M,4,2074.18500000518,speed,right,0.2,14,experimental,142,0.2,1,4
1.04382000000635,180,0.2,22,M,5,1169.19500000961,speed,left,0.2,15,experimental,142,0.2,1,5
1.21862499999418,0,0.2,22,M,5,1254.29000001168,speed,right,0.2,16,experimental,142,0.2,1,5
0.996269999988843,0,0.2,22,M,5,773.410000008764,speed,right,0.2,17,experimental,142,0.2,1,5
1.48821499999007,0,0.2,22,M,5,1007.61500000954,speed,right,0.2,18,experimental,142,0.2,1,5
1.47759500000393,0,0.2,22,M,6,1029.08500000206,speed,right,0.2,19,experimental,142,0.2,1,6
0.800309999991674,180,0.2,22,M,6,955.969999995315,speed,left,0.2,20,experimental,142,0.2,1,6
3.62881499998923,180,0.2,22,M,4,4684.3200000003,speed,left,0.2,21,experimental,142,0.2,1,4
0.844555000003427,180,0.2,22,M,5,1186.2450000043,speed,left,0.2,22,experimental,142,0.2,1,5
0.873115000009537,180,0.2,22,M,5,680.005000001984,speed,left,0.2,23,experimental,142,0.2,1,5
1.12919500000123,180,0.2,22,M,4,1832.34500000253,speed,left,0.2,24,experimental,142,0.2,0,4
0.755949999991572,0,0.2,22,M,6,1116.00000000885,speed,right,0.2,25,experimental,142,0.2,1,6
1.17974999999558,180,0.2,22,M,5,552.1549999977,speed,left,0.2,26,experimental,142,0.2,1,5
1.34442999999737,180,0.2,22,M,4,905.169999998063,speed,left,0.2,27,experimental,142,0.2,1,4
0.990384999997448,180,0.2,22,M,5,961.524999991525,speed,left,0.2,28,experimental,142,0.2,1,5
0.774275000003399,0,0.2,22,M,6,978.889999998501,speed,right,0.2,29,experimental,142,0.2,1,6
0.762765000006883,180,0.2,22,M,6,1003.1799999997,speed,left,0.2,30,experimental,142,0.2,1,6
1.39768499998888,0,0.2,22,M,5,1776.25999999885,speed,right,0.2,31,experimental,142,0.2,1,5
0.848680000010179,0,0.2,22,M,4,824.984999999404,speed,right,0.2,32,experimental,142,0.2,1,4
1.37536499999976,0,0.2,22,M,5,2679.00499999803,speed,right,0.2,33,experimental,142,0.2,1,5
0.728424999993993,180,0.2,22,M,6,831.924999991199,speed,left,0.2,34,experimental,142,0.2,1,6
0.749995000005467,0,0.2,22,M,5,1369.16499999654,speed,right,0.2,35,experimental,142,0.2,1,5
0.59581500000786,180,0.2,22,M,5,978.304999996908,speed,left,0.2,36,experimental,142,0.2,1,5
0.785764999993145,180,0.2,22,M,5,896.139999997104,speed,left,0.2,37,experimental,142,0.2,1,5
0.766315000000875,0,0.2,22,M,6,525.435000003316,speed,right,0.2,38,experimental,142,0.2,1,6
0.706664999990724,180,0.2,22,M,6,1098.89000000828,speed,left,0.2,39,experimental,142,0.2,1,6
1.08401000000606,180,0.2,22,M,4,1114.40500000026,speed,left,0.2,40,experimental,142,0.2,1,4
0.785520000004675,0,0.2,22,M,6,2629.2149999938,speed,right,0.2,41,experimental,142,0.2,1,6
1.05608999999845,180,0.2,22,M,4,1669.90000000806,speed,left,0.2,42,experimental,142,0.2,1,4
0.861615000001621,0,0.2,22,M,5,1993.58999999845,speed,right,0.2,43,experimental,142,0.2,1,5
0.776510000010487,0,0.2,22,M,5,627.254999999423,speed,right,0.2,44,experimental,142,0.2,1,5
2.13710999999614,180,0.2,22,M,3,3556.28499999875,speed,left,0.2,45,experimental,142,0.2,0,3
0.707099999999627,0,0.2,22,M,5,507.194999998435,speed,right,0.2,46,experimental,142,0.2,1,5
0.659950000001118,0,0.2,22,M,5,701.444999998901,speed,right,0.2,47,experimental,142,0.2,1,5
1.19823500000336,180,0.2,22,M,5,1543.89999998966,speed,left,0.2,48,experimental,142,0.2,1,5
1.08292000000086,180,0.2,22,M,4,1300.53499998758,speed,left,0.2,49,experimental,142,0.2,1,4
0.636724999989383,0,0.2,22,M,5,947.425000005867,speed,right,0.2,50,experimental,142,0.2,1,5
0.964519999994198,0,0.2,22,M,5,1154.45499999635,speed,right,0.2,51,experimental,142,0.2,1,5
1.0236650000005,180,0.2,22,M,4,833.97000000719,speed,left,0.2,52,experimental,142,0.2,1,4
1.23777500000154,180,0.2,22,M,4,3321.30499999039,speed,left,0.2,53,experimental,142,0.2,0,4
0.688434999989113,0,0.2,22,M,5,808.10999999824,speed,right,0.2,54,experimental,142,0.2,1,5
0.758405000000726,180,0.2,22,M,5,690.369999996386,speed,left,0.2,55,experimental,142,0.2,1,5
1.01689499999327,180,0.2,22,M,5,686.464999991702,speed,left,0.2,56,experimental,142,0.2,1,5
0.734489999987883,0,0.2,22,M,6,725.099999996135,speed,right,0.2,57,experimental,142,0.2,1,6
0.805029999988619,180,0.2,22,M,5,984.154999998398,speed,left,0.2,58,experimental,142,0.2,1,5
0.727874999996973,0,0.2,22,M,5,730.55500000203,speed,right,0.2,59,experimental,142,0.2,1,5
0.736015000001993,0,0.2,22,M,5,848.345000005793,speed,right,0.2,60,experimental,142,0.2,1,5
0.506525000004331,180,0.2,22,M,4,2830.19000000786,speed,left,0.2,1,experimental,142,0.2,1,4
0.463789999994449,180,0.2,22,M,5,440.01500000013,speed,left,0.2,2,experimental,142,0.2,1,5
0.523359999991953,0,0.2,22,M,5,454.010000001406,speed,right,0.2,3,experimental,142,0.2,1,5
0.433290000000969,180,0.2,22,M,5,385.444999992847,speed,left,0.2,4,experimental,142,0.2,1,5
0.516855000008829,0,0.2,22,M,5,409.289999996079,speed,right,0.2,5,experimental,142,0.2,1,5
0.466194999986328,180,0.2,22,M,6,481.590000010096,speed,left,0.2,6,experimental,142,0.2,1,6
0.562805000008782,180,0.2,22,M,5,428.669999993872,speed,left,0.2,7,experimental,142,0.2,1,5
0.530489999990212,0,0.2,22,M,5,452.684999996563,speed,right,0.2,8,experimental,142,0.2,1,5
0.471544999993173,180,0.2,22,M,5,367.180000001099,speed,left,0.2,9,experimental,142,0.2,1,5
0.428719999996247,0,0.2,22,M,5,533.249999993248,speed,right,0.2,10,experimental,142,0.2,1,5
0.553735000008717,0,0.2,22,M,6,412.92499999702,speed,right,0.2,11,experimental,142,0.2,1,6
0.533699999999953,0,0.2,22,M,6,411.729999992531,speed,right,0.2,12,experimental,142,0.2,1,6
0.597309999997495,0,0.2,22,M,5,505.235000004061,speed,right,0.2,13,experimental,142,0.2,1,5
0.423230000000214,180,0.2,22,M,5,431.589999992866,speed,left,0.2,14,experimental,142,0.2,1,5
0.688584999996237,180,0.2,22,M,5,465.004999991041,speed,left,0.2,15,experimental,142,0.2,1,5
0.404150000002002,0,0.2,22,M,5,821.89999999525,speed,right,0.2,16,experimental,142,0.2,1,5
0.62472000000719,180,0.2,22,M,3,2316.32499999227,speed,left,0.2,17,experimental,142,0.2,1,3
0.572075000003446,180,0.2,22,M,4,745.200000004843,speed,left,0.2,18,experimental,142,0.2,1,4
0.43311999998684,0,0.2,22,M,5,381.399999998277,speed,right,0.2,19,experimental,142,0.2,1,5
0.449699999997392,0,0.2,22,M,5,348.274999996647,speed,right,0.2,20,experimental,142,0.2,1,5
0.615719999986933,0,0.2,22,M,5,394.110000008484,speed,right,0.2,21,experimental,142,0.2,1,5
0.447319999992149,0,0.2,22,M,5,602.280000006314,speed,right,0.2,22,experimental,142,0.2,1,5
0.522589999993099,180,0.2,22,M,5,400.104999993462,speed,left,0.2,23,experimental,142,0.2,1,5
0.602840000006836,180,0.2,22,M,5,510.525000005262,speed,left,0.2,24,experimental,142,0.2,1,5
0.541174999991432,0,0.2,22,M,5,381.445000006352,speed,right,0.2,25,experimental,142,0.2,1,5
0.474415000004228,180,0.2,22,M,5,1361.11000001268,speed,left,0.2,26,experimental,142,0.2,1,5
0.526139999987325,0,0.2,22,M,5,384.665000004927,speed,right,0.2,27,experimental,142,0.2,1,5
0.647379999994999,180,0.2,22,M,4,574.245000010589,speed,left,0.2,28,experimental,142,0.2,1,4
0.486694999999367,0,0.2,22,M,5,364.094999996945,speed,right,0.2,29,experimental,142,0.2,1,5
0.529219999996712,0,0.2,22,M,5,377.639999991283,speed,right,0.2,30,experimental,142,0.2,1,5
0.604765000011073,180,0.2,22,M,5,551.475000000326,speed,left,0.2,31,experimental,142,0.2,1,5
0.831969999999274,180,0.2,22,M,5,485.035000005271,speed,left,0.2,32,experimental,142,0.2,1,5
0.398855000006733,0,0.2,22,M,5,396.200000002747,speed,right,0.2,33,experimental,142,0.2,1,5
0.410649999990594,180,0.2,22,M,4,511.240000007208,speed,left,0.2,34,experimental,142,0.2,1,4
0.564314999995986,180,0.2,22,M,5,299.889999994775,speed,left,0.2,35,experimental,142,0.2,1,5
0.596189999996452,0,0.2,22,M,5,358.204999996815,speed,right,0.2,36,experimental,142,0.2,1,5
0.790279999986291,0,0.2,22,M,6,446.249999993481,speed,right,0.2,37,experimental,142,0.2,1,6
0.615579999997746,180,0.2,22,M,5,401.229999988806,speed,left,0.2,38,experimental,142,0.2,1,5
0.588374999992084,0,0.2,22,M,5,497.279999995837,speed,right,0.2,39,experimental,142,0.2,1,5
0.66516499999864,0,0.2,22,M,5,349.70999999484,speed,right,0.2,40,experimental,142,0.2,1,5
0.663305000009015,0,0.2,22,M,5,363.3850000042,speed,right,0.2,41,experimental,142,0.2,1,5
0.68198999999743,180,0.2,22,M,6,390.055000010878,speed,left,0.2,42,experimental,142,0.2,1,6
0.491544999997132,0,0.2,22,M,5,424.169999998529,speed,right,0.2,43,experimental,142,0.2,1,5
0.719805000000633,180,0.2,22,M,4,1047.29999999097,speed,left,0.2,44,experimental,142,0.2,1,4
1.06990000000224,180,0.2,22,M,4,2033.15000000293,speed,left,0.2,45,experimental,142,0.2,1,4
0.571419999992941,0,0.2,22,M,4,438.544999997364,speed,right,0.2,46,experimental,142,0.2,1,4
0.685975000000559,180,0.2,22,M,5,417.220000002999,speed,left,0.2,47,experimental,142,0.2,1,5
0.432870000004303,180,0.2,22,M,4,927.979999993229,speed,left,0.2,48,experimental,142,0.2,0,4
0.354104999991367,180,0.2,22,M,5,485.434999995166,speed,left,0.2,49,experimental,142,0.2,1,5
0.617680000010412,0,0.2,22,M,5,354.090000008,speed,right,0.2,50,experimental,142,0.2,1,5
0.669590000004973,0,0.2,22,M,5,312.219999992289,speed,right,0.2,51,experimental,142,0.2,1,5
0.678425000005402,0,0.2,22,M,5,439.530000003055,speed,right,0.2,52,experimental,142,0.2,1,5
0.470110000009416,0,0.2,22,M,5,1763.16499999654,speed,right,0.2,53,experimental,142,0.2,1,5
0.495479999997653,180,0.2,22,M,5,370.630000005011,speed,left,0.2,54,experimental,142,0.2,1,5
0.763120000003371,180,0.2,22,M,6,388.575000004377,speed,left,0.2,55,experimental,142,0.2,1,6
0.542495000001509,0,0.2,22,M,6,382.45499999891,speed,right,0.2,56,experimental,142,0.2,1,6
0.668799999999581,0,0.2,22,M,5,658.985000001965,speed,right,0.2,57,experimental,142,0.2,1,5
0.808189999995986,180,0.2,22,M,5,503.174999990733,speed,left,0.2,58,experimental,142,0.2,1,5
0.821670000005048,180,0.2,22,M,5,374.850000007544,speed,left,0.2,59,experimental,142,0.2,1,5
0.675775000010617,180,0.2,22,M,4,991.200000003912,speed,left,0.2,60,experimental,142,0.2,1,4
0.820014999990352,180,0.2,22,M,6,1862.67999999085,speed,left,0.2,1,experimental,142,0.2,1,6
0.605005000005011,0,0.2,22,M,5,1431.79499999667,speed,right,0.2,2,experimental,142,0.2,1,5
0.709235000001965,180,0.2,22,M,5,727.455000000075,speed,left,0.2,3,experimental,142,0.2,1,5
0.916775000005029,180,0.2,22,M,5,842.010000007693,speed,left,0.2,4,experimental,142,0.2,1,5
0.654980000006734,0,0.2,22,M,6,524.9150000019,speed,right,0.2,5,experimental,142,0.2,1,6
0.789969999997877,0,0.2,22,M,6,638.135000000941,speed,right,0.2,6,experimental,142,0.2,1,6
0.787945000003558,0,0.2,22,M,6,534.744999997318,speed,right,0.2,7,experimental,142,0.2,1,6
0.716964999999851,180,0.2,22,M,6,515.220000001136,speed,left,0.2,8,experimental,142,0.2,1,6
0.728034999992698,180,0.2,22,M,5,748.715000008699,speed,left,0.2,9,experimental,142,0.2,1,5
0.82274000000325,0,0.2,22,M,5,703.50499999756,speed,right,0.2,10,experimental,142,0.2,1,5
0.673314999992726,0,0.2,22,M,5,504.570000004722,speed,right,0.2,11,experimental,142,0.2,1,5
0.717699999993667,180,0.2,22,M,5,487.244999996619,speed,left,0.2,12,experimental,142,0.2,1,5
0.620584999997169,180,0.2,22,M,5,466.415000002598,speed,left,0.2,13,experimental,142,0.2,1,5
0.746794999999227,180,0.2,22,M,4,626.01500000176,speed,left,0.2,14,experimental,142,0.2,1,4
0.745215000002645,0,0.2,22,M,5,547.220000007655,speed,right,0.2,15,experimental,142,0.2,1,5
0.786364999992773,0,0.2,22,M,6,647.165000002133,speed,right,0.2,16,experimental,142,0.2,1,6
0.566059999997262,180,0.2,22,M,6,434.740000011399,speed,left,0.2,17,experimental,142,0.2,1,6
0.889155000011669,0,0.2,22,M,5,525.114999996964,speed,right,0.2,18,experimental,142,0.2,1,5
0.829189999989234,0,0.2,22,M,5,719.255000003614,speed,right,0.2,19,experimental,142,0.2,0,5
0.589475000000792,0,0.2,22,M,6,434.070000002859,speed,right,0.2,20,experimental,142,0.2,1,6
0.568194999999832,180,0.2,22,M,6,594.259999998147,speed,left,0.2,21,experimental,142,0.2,1,6
0.696930000005523,180,0.2,22,M,6,349.924999987707,speed,left,0.2,22,experimental,142,0.2,1,6
0.599484999998705,0,0.2,22,M,6,365.149999997811,speed,right,0.2,23,experimental,142,0.2,1,6
0.664345000012079,180,0.2,22,M,6,351.645000002347,speed,left,0.2,24,experimental,142,0.2,1,6
0.593039999992587,0,0.2,22,M,6,350.115000008605,speed,right,0.2,25,experimental,142,0.2,1,6
0.712979999996489,180,0.2,22,M,6,1710.35999999754,speed,left,0.2,26,experimental,142,0.2,1,6
1.02514499999257,180,0.2,22,M,6,627.215000000317,speed,left,0.2,27,experimental,142,0.2,1,6
0.86567499999376,180,0.2,22,M,4,1256.72000000486,speed,left,0.2,28,experimental,142,0.2,1,4
0.973694999993313,180,0.2,22,M,5,574.850000004284,speed,left,0.2,29,experimental,142,0.2,1,5
0.924109999992652,0,0.2,22,M,6,924.214999991935,speed,right,0.2,30,experimental,142,0.2,1,6
0.915829999998212,180,0.2,22,M,5,747.564999997849,speed,left,0.2,31,experimental,142,0.2,1,5
0.860455000001937,180,0.2,22,M,4,633.150000008754,speed,left,0.2,32,experimental,142,0.2,1,4
0.895895000008866,0,0.2,22,M,5,1010.14500000747,speed,right,0.2,33,experimental,142,0.2,1,5
0.709619999994291,0,0.2,22,M,5,824.260000008624,speed,right,0.2,34,experimental,142,0.2,1,5
0.749960000000894,0,0.2,22,M,5,695.214999999851,speed,right,0.2,35,experimental,142,0.2,1,5
1.05980500001181,0,0.2,22,M,5,560.064999997616,speed,right,0.2,36,experimental,142,0.2,1,5
0.980510000008391,180,0.2,22,M,5,583.880000005709,speed,left,0.2,37,experimental,142,0.2,1,5
1.0489649999945,180,0.2,22,M,5,571.100000001024,speed,left,0.2,38,experimental,142,0.2,1,5
1.07590000001085,180,0.2,22,M,5,1133.0250000027,speed,left,0.2,39,experimental,142,0.2,1,5
0.916774999990594,0,0.2,22,M,6,1435.25000000931,speed,right,0.2,40,experimental,142,0.2,1,6
0.690579999994952,180,0.2,22,M,6,406.620000008959,speed,left,0.2,41,experimental,142,0.2,1,6
0.610855000006268,0,0.2,22,M,6,420.975000001024,speed,right,0.2,42,experimental,142,0.2,1,6
0.722204999998212,180,0.2,22,M,6,606.834999998799,speed,left,0.2,43,experimental,142,0.2,1,6
0.77842999999132,0,0.2,22,M,6,444.21000000136,speed,right,0.2,44,experimental,142,0.2,1,6
1.13558000000194,0,0.2,22,M,4,1472.37999999197,speed,right,0.2,45,experimental,142,0.2,1,4
0.942219999996945,180,0.2,22,M,1,2179.95999999414,speed,left,0.2,46,experimental,142,0.2,0,1
1.01269499999774,0,0.2,22,M,5,506.119999990799,speed,right,0.2,47,experimental,142,0.2,1,5
0.666169999996899,0,0.2,22,M,5,628.880000003614,speed,right,0.2,48,experimental,142,0.2,1,5
1.10740999999689,0,0.2,22,M,5,433.760000000009,speed,right,0.2,49,experimental,142,0.2,1,5
0.862680000005523,0,0.2,22,M,5,428.239999993704,speed,right,0.2,50,experimental,142,0.2,1,5
0.726890000005253,0,0.2,22,M,5,395.915000000969,speed,right,0.2,51,experimental,142,0.2,1,5
0.852044999992242,180,0.2,22,M,5,425.560000003316,speed,left,0.2,52,experimental,142,0.2,1,5
0.705869999990566,0,0.2,22,M,6,413.13000000082,speed,right,0.2,53,experimental,142,0.2,1,6
0.725844999993453,180,0.2,22,M,5,413.190000006696,speed,left,0.2,54,experimental,142,0.2,1,5
0.787870000000112,0,0.2,22,M,5,379.154999987688,speed,right,0.2,55,experimental,142,0.2,1,5
0.561550000013318,180,0.2,22,M,5,527.26000000257,speed,left,0.2,56,experimental,142,0.2,1,5
0.689870000001974,180,0.2,22,M,6,489.289999997709,speed,left,0.2,57,experimental,142,0.2,1,6
0.704444999995874,0,0.2,22,M,5,409.299999999348,speed,right,0.2,58,experimental,142,0.2,1,5
2.37780000000191,180,0.2,22,M,3,1341.25500000664,speed,left,0.2,59,experimental,142,0.2,1,3
0.729624999992549,180,0.2,22,M,5,447.090000001481,speed,left,0.2,60,experimental,142,0.2,1,5
0.475439999994822,180,0.2,22,M,1,2143.34500000416,speed,left,0.2,1,experimental,142,0.2,0,1
0.348914999994915,180,0.2,22,M,5,706.154999992577,speed,left,0.2,2,experimental,142,0.2,1,5
0.421035000006668,0,0.2,22,M,5,413.144999998622,speed,right,0.2,3,experimental,142,0.2,1,5
0.443004999993835,0,0.2,22,M,4,764.790000001201,speed,right,0.2,4,experimental,142,0.2,0,4
0.484884999998147,180,0.2,22,M,4,785.120000000345,speed,left,0.2,5,experimental,142,0.2,1,4
0.503400000001537,180,0.2,22,M,4,1145.2900000005,speed,left,0.2,6,experimental,142,0.2,0,4
0.429049999991665,180,0.2,22,M,4,601.989999995567,speed,left,0.2,7,experimental,142,0.2,1,4
0.477020000005839,0,0.2,22,M,5,493.360000007786,speed,right,0.2,8,experimental,142,0.2,1,5
0.261654999994673,0,0.2,22,M,2,1126.87000000733,speed,right,0.2,9,experimental,142,0.2,0,2
0.471115000007441,0,0.2,22,M,5,745.070000004489,speed,right,0.2,10,experimental,142,0.2,1,5
0.365724999995902,0,0.2,22,M,4,739.500000010477,speed,right,0.2,11,experimental,142,0.2,1,4
0.541785000008531,180,0.2,22,M,5,493.369999996619,speed,left,0.2,12,experimental,142,0.2,1,5
0.451990000001388,180,0.2,22,M,4,622.495000003139,speed,left,0.2,13,experimental,142,0.2,0,4
0.372619999994757,180,0.2,22,M,5,421.560000002617,speed,left,0.2,14,experimental,142,0.2,1,5
0.513210000004619,0,0.2,22,M,5,344.089999998687,speed,right,0.2,15,experimental,142,0.2,1,5
0.5914300000004,0,0.2,22,M,5,446.39499999187,speed,right,0.2,16,experimental,142,0.2,1,5
0.398979999998119,0,0.2,22,M,4,732.390000004787,speed,right,0.2,17,experimental,142,0.2,1,4
0.580795000001788,0,0.2,22,M,5,340.190000002505,speed,right,0.2,18,experimental,142,0.2,1,5
0.382614999995101,180,0.2,22,M,5,354.619999998249,speed,left,0.2,19,experimental,142,0.2,1,5
0.465049999998882,0,0.2,22,M,5,326.220000002766,speed,right,0.2,20,experimental,142,0.2,1,5
0.331164999996079,180,0.2,22,M,5,500.044999993406,speed,left,0.2,21,experimental,142,0.2,1,5
0.508614999998827,0,0.2,22,M,5,321.230000001378,speed,right,0.2,22,experimental,142,0.2,1,5
0.413439999989467,180,0.2,22,M,5,362.445000006119,speed,left,0.2,23,experimental,142,0.2,1,5
0.657739999995101,180,0.2,22,M,6,456.729999990901,speed,left,0.2,24,experimental,142,0.2,1,6
0.392459999988321,0,0.2,22,M,6,418.189999996684,speed,right,0.2,25,experimental,142,0.2,1,6
0.916040000010747,180,0.2,22,M,5,337.534999998752,speed,left,0.2,26,experimental,142,0.2,1,5
0.439285000000615,0,0.2,22,M,5,314.475000006612,speed,right,0.2,27,experimental,142,0.2,1,5
0.696945000003558,0,0.2,22,M,4,525.204999997979,speed,right,0.2,28,experimental,142,0.2,1,4
0.50299999999674,180,0.2,22,M,5,485.564999995288,speed,left,0.2,29,experimental,142,0.2,1,5
0.458265000008279,0,0.2,22,M,5,331.099999995902,speed,right,0.2,30,experimental,142,0.2,1,5
0.352794999998994,180,0.2,22,M,5,365.999999994645,speed,left,0.2,31,experimental,142,0.2,1,5
0.614820000002393,180,0.2,22,M,5,386.449999990873,speed,left,0.2,32,experimental,142,0.2,1,5
0.622595000008121,0,0.2,22,M,5,395.524999999907,speed,right,0.2,33,experimental,142,0.2,1,5
0.500975000002887,180,0.2,22,M,5,360.329999995884,speed,left,0.2,34,experimental,142,0.2,1,5
0.61934000000474,0,0.2,22,M,6,419.039999993285,speed,right,0.2,35,experimental,142,0.2,1,6
0.475695000001229,180,0.2,22,M,4,479.060000012163,speed,left,0.2,36,experimental,142,0.2,1,4
0.884404999989783,180,0.2,22,M,4,560.949999999255,speed,left,0.2,37,experimental,142,0.2,1,4
0.550139999992214,180,0.2,22,M,4,400.305000002962,speed,left,0.2,38,experimental,142,0.2,1,4
0.438030000004917,0,0.2,22,M,4,540.5449999962,speed,right,0.2,39,experimental,142,0.2,1,4
0.42252500000177,180,0.2,22,M,5,390.469999998575,speed,left,0.2,40,experimental,142,0.2,1,5
0.517464999997057,0,0.2,22,M,5,436.455000002868,speed,right,0.2,41,experimental,142,0.2,1,5
0.413820000001695,180,0.2,22,M,5,377.520000009099,speed,left,0.2,42,experimental,142,0.2,1,5
0.425295000008307,180,0.2,22,M,4,586.740000013495,speed,left,0.2,43,experimental,142,0.2,0,4
0.4657900000019,0,0.2,22,M,5,389.190000001807,speed,right,0.2,44,experimental,142,0.2,1,5
0.477100000003586,0,0.2,22,M,6,483.615000004647,speed,right,0.2,45,experimental,142,0.2,1,6
0.585175000000279,0,0.2,22,M,5,455.809999999357,speed,right,0.2,46,experimental,142,0.2,1,5
0.503765000001527,180,0.2,22,M,3,1864.74499999871,speed,left,0.2,47,experimental,142,0.2,0,3
0.468179999995977,0,0.2,22,M,5,385.005000003846,speed,right,0.2,48,experimental,142,0.2,1,5
0.616934999998193,180,0.2,22,M,2,940.6650000019,speed,left,0.2,49,experimental,142,0.2,0,2
0.750790000005392,180,0.2,22,M,3,1571.98999999696,speed,left,0.2,50,experimental,142,0.2,0,3
0.632279999990482,0,0.2,22,M,5,399.929999999469,speed,right,0.2,51,experimental,142,0.2,1,5
0.715645000003744,180,0.2,22,M,5,370.865000004414,speed,left,0.2,52,experimental,142,0.2,1,5
0.551639999990584,0,0.2,22,M,5,342.415000006557,speed,right,0.2,53,experimental,142,0.2,1,5
0.469564999992028,180,0.2,22,M,5,545.765000002692,speed,left,0.2,54,experimental,142,0.2,1,5
0.430900000006426,0,0.2,22,M,5,327.384999996983,speed,right,0.2,55,experimental,142,0.2,1,5
0.794964999993565,0,0.2,22,M,5,285.304999997839,speed,right,0.2,56,experimental,142,0.2,1,5
0.438900000008289,0,0.2,22,M,5,259.870000008959,speed,right,0.2,57,experimental,142,0.2,1,5
0.653135000000475,180,0.2,22,M,5,365.030000000959,speed,left,0.2,58,experimental,142,0.2,1,5
0.523840000008931,0,0.2,22,M,6,320.094999988331,speed,right,0.2,59,experimental,142,0.2,1,6
0.532940000004601,180,0.2,22,M,5,253.105000010692,speed,left,0.2,60,experimental,142,0.2,1,5
0.759934999994468,0,0.2,22,M,5,962.055000010878,speed,right,0.2,1,experimental,142,0.2,1,5
0.511434999993071,180,0.2,22,M,5,381.154999995371,speed,left,0.2,2,experimental,142,0.2,1,5
0.584210000000894,180,0.2,22,M,6,409.799999994226,speed,left,0.2,3,experimental,142,0.2,1,6
0.609765000001062,180,0.2,22,M,5,480.234999995679,speed,left,0.2,4,experimental,142,0.2,1,5
0.784769999998156,180,0.2,22,M,5,435.119999994524,speed,left,0.2,5,experimental,142,0.2,1,5
0.7364899999958,0,0.2,22,M,6,385.24000000325,speed,right,0.2,6,experimental,142,0.2,1,6
0.72446500000637,0,0.2,22,M,6,354.410000000149,speed,right,0.2,7,experimental,142,0.2,1,6
0.499125000002095,180,0.2,22,M,6,448.984999995213,speed,left,0.2,8,experimental,142,0.2,1,6
0.574390000008978,0,0.2,22,M,6,369.095000001835,speed,right,0.2,9,experimental,142,0.2,1,6
0.523589999997057,180,0.2,22,M,5,519.720000011381,speed,left,0.2,10,experimental,142,0.2,1,5
0.682899999999674,0,0.2,22,M,5,362.05999999959,speed,right,0.2,11,experimental,142,0.2,1,5
0.679640000002226,0,0.2,22,M,5,356.165000004694,speed,right,0.2,12,experimental,142,0.2,1,5
1.03926499999966,0,0.2,22,M,5,320.095000002766,speed,right,0.2,13,experimental,142,0.2,1,5
0.892590000003111,180,0.2,22,M,4,527.050000004005,speed,left,0.2,14,experimental,142,0.2,1,4
0.631964999993332,0,0.2,22,M,5,283.804999999003,speed,right,0.2,15,experimental,142,0.2,1,5
1.1374399999911,0,0.2,22,M,3,1908.9899999965,speed,right,0.2,16,experimental,142,0.2,0,3
1.30982500000391,180,0.2,22,M,5,402.919999993406,speed,left,0.2,17,experimental,142,0.2,1,5
0.698270000008168,0,0.2,22,M,5,525.324999995064,speed,right,0.2,18,experimental,142,0.2,1,5
1.54257000000495,180,0.2,22,M,1,1397.01499999501,speed,left,0.2,19,experimental,142,0.2,0,1
0.881175000002142,180,0.2,22,M,5,912.134999991395,speed,left,0.2,20,experimental,142,0.2,1,5
0.998979999989271,0,0.2,22,M,5,412.215000004042,speed,right,0.2,21,experimental,142,0.2,1,5
0.686485000012908,0,0.2,22,M,5,399.034999994794,speed,right,0.2,22,experimental,142,0.2,0,5
0.997510000000941,180,0.2,22,M,5,333.230000003707,speed,left,0.2,23,experimental,142,0.2,1,5
1.46247999998741,180,0.2,22,M,4,992.37500000163,speed,left,0.2,24,experimental,142,0.2,1,4
0.987429999993881,180,0.2,22,M,4,565.524999998044,speed,left,0.2,25,experimental,142,0.2,1,4
1.10725000000093,180,0.2,22,M,4,466.215000007534,speed,left,0.2,26,experimental,142,0.2,1,4
0.957849999991478,0,0.2,22,M,5,422.130000006407,speed,right,0.2,27,experimental,142,0.2,1,5
1.04567499998678,0,0.2,22,M,5,809.975000011036,speed,right,0.2,28,experimental,142,0.2,0,5
1.13478000000748,180,0.2,22,M,5,490.67499999376,speed,left,0.2,29,experimental,142,0.2,1,5
1.16790999998921,180,0.2,22,M,4,683.930000013672,speed,left,0.2,30,experimental,142,0.2,1,4
0.833880000005709,0,0.2,22,M,5,673.725000000559,speed,right,0.2,31,experimental,142,0.2,1,5
1.01981500000693,0,0.2,22,M,5,296.575000000419,speed,right,0.2,32,experimental,142,0.2,1,5
0.962035000004107,180,0.2,22,M,5,529.725000000326,speed,left,0.2,33,experimental,142,0.2,1,5
1.10933999999543,0,0.2,22,M,6,849.629999997094,speed,right,0.2,34,experimental,142,0.2,1,6
0.813680000006454,180,0.2,22,M,6,552.800000004936,speed,left,0.2,35,experimental,142,0.2,1,6
0.984400000001071,0,0.2,22,M,6,564.630000007804,speed,right,0.2,36,experimental,142,0.2,1,6
1.11285000000522,180,0.2,22,M,6,1561.6500000034,speed,left,0.2,37,experimental,142,0.2,1,6
1.07197999999323,0,0.2,22,M,5,504.220000002533,speed,right,0.2,38,experimental,142,0.2,1,5
1.07997000000626,0,0.2,22,M,5,719.180000000168,speed,right,0.2,39,experimental,142,0.2,1,5
2.42562999999803,0,0.2,22,M,4,1748.90500000049,speed,right,0.2,40,experimental,142,0.2,1,4
0.935579999990296,180,0.2,22,M,5,714.225000003353,speed,left,0.2,41,experimental,142,0.2,1,5
0.719419999993872,0,0.2,22,M,5,427.844999998342,speed,right,0.2,42,experimental,142,0.2,1,5
0.767009999995818,180,0.2,22,M,6,498.319999998901,speed,left,0.2,43,experimental,142,0.2,1,6
0.848370000007097,0,0.2,22,M,5,415.589999989606,speed,right,0.2,44,experimental,142,0.2,1,5
0.876279999996768,180,0.2,22,M,6,705.179999989923,speed,left,0.2,45,experimental,142,0.2,1,6
2.15373499999987,0,0.2,22,M,4,725.024999992456,speed,right,0.2,46,experimental,142,0.2,1,4
2.23975000000792,180,0.2,22,M,2,1722.24499999732,speed,left,0.2,47,experimental,142,0.2,0,2
