rt,coherent_direction,coherence,age,gender,resp_confidence,rt_confidence,sat_CB,direction,coherence_level,trial,phase,sub,coh,cor,cj
2.49898500001291,180,0.5,20,V,-1,-1,accuracy,left,0.5,1,training_1,7627,0.5,0,-1
0.807074999989709,0,0.5,20,V,-1,-1,accuracy,right,0.5,2,training_1,7627,0.5,0,-1
1.74359500000719,0,0.5,20,V,-1,-1,accuracy,right,0.5,3,training_1,7627,0.5,0,-1
0.926940000004834,180,0.5,20,V,-1,-1,accuracy,left,0.5,4,training_1,7627,0.5,0,-1
1.65997000000789,180,0.5,20,V,-1,-1,accuracy,left,0.5,5,training_1,7627,0.5,0,-1
2.9216449999949,180,0.5,20,V,-1,-1,accuracy,left,0.5,6,training_1,7627,0.5,0,-1
3.04111000002013,0,0.5,20,V,-1,-1,accuracy,right,0.5,7,training_1,7627,0.5,0,-1
0.830675000004703,0,0.5,20,V,-1,-1,accuracy,right,0.5,8,training_1,7627,0.5,0,-1
2.98217000000295,180,0.5,20,V,-1,-1,accuracy,left,0.5,9,training_1,7627,0.5,0,-1
0.7149699999718,180,0.5,20,V,-1,-1,accuracy,left,0.5,10,training_1,7627,0.5,1,-1
2.09228000001167,0,0.5,20,V,-1,-1,accuracy,right,0.5,11,training_1,7627,0.5,0,-1
1.32391000000644,0,0.5,20,V,-1,-1,accuracy,right,0.5,12,training_1,7627,0.5,0,-1
0.968299999978626,180,0.5,20,V,-1,-1,accuracy,left,0.5,13,training_1,7627,0.5,0,-1
1.34837999998126,0,0.5,20,V,-1,-1,accuracy,right,0.5,14,training_1,7627,0.5,0,-1
0.8247300000221,180,0.5,20,V,-1,-1,accuracy,left,0.5,15,training_1,7627,0.5,1,-1
0.74304500001017,0,0.5,20,V,-1,-1,accuracy,right,0.5,16,training_1,7627,0.5,1,-1
0.560779999999795,180,0.5,20,V,-1,-1,accuracy,left,0.5,17,training_1,7627,0.5,1,-1
0.662650000012945,180,0.5,20,V,-1,-1,accuracy,left,0.5,18,training_1,7627,0.5,0,-1
0.690875000000233,180,0.5,20,V,-1,-1,accuracy,left,0.5,19,training_1,7627,0.5,1,-1
0.733164999983273,0,0.5,20,V,-1,-1,accuracy,right,0.5,20,training_1,7627,0.5,1,-1
0.574110000015935,180,0.5,20,V,-1,-1,accuracy,left,0.5,21,training_1,7627,0.5,1,-1
0.67705999998725,0,0.5,20,V,-1,-1,accuracy,right,0.5,22,training_1,7627,0.5,1,-1
0.701009999989765,0,0.5,20,V,-1,-1,accuracy,right,0.5,23,training_1,7627,0.5,1,-1
0.611055000015767,0,0.5,20,V,-1,-1,accuracy,right,0.5,24,training_1,7627,0.5,1,-1
0.668225000001257,180,0.5,20,V,-1,-1,accuracy,left,0.5,1,training_1,7627,0.5,1,-1
0.664829999994254,180,0.5,20,V,-1,-1,accuracy,left,0.5,2,training_1,7627,0.5,0,-1
0.928175000008196,180,0.5,20,V,-1,-1,accuracy,left,0.5,3,training_1,7627,0.5,1,-1
0.778449999983422,0,0.5,20,V,-1,-1,accuracy,right,0.5,4,training_1,7627,0.5,1,-1
0.728050000005169,0,0.5,20,V,-1,-1,accuracy,right,0.5,5,training_1,7627,0.5,1,-1
2.65722999998252,180,0.5,20,V,-1,-1,accuracy,left,0.5,6,training_1,7627,0.5,0,-1
0.692844999983208,180,0.5,20,V,-1,-1,accuracy,left,0.5,7,training_1,7627,0.5,1,-1
0.514620000001742,0,0.5,20,V,-1,-1,accuracy,right,0.5,8,training_1,7627,0.5,1,-1
0.542084999993676,0,0.5,20,V,-1,-1,accuracy,right,0.5,9,training_1,7627,0.5,1,-1
0.613914999994449,180,0.5,20,V,-1,-1,accuracy,left,0.5,10,training_1,7627,0.5,1,-1
0.589165000012144,0,0.5,20,V,-1,-1,accuracy,right,0.5,11,training_1,7627,0.5,1,-1
0.713389999989886,0,0.5,20,V,-1,-1,accuracy,right,0.5,12,training_1,7627,0.5,1,-1
0.860205000004498,0,0.5,20,V,-1,-1,accuracy,right,0.5,13,training_1,7627,0.5,1,-1
0.797090000007302,0,0.5,20,V,-1,-1,accuracy,right,0.5,14,training_1,7627,0.5,1,-1
0.617529999988619,180,0.5,20,V,-1,-1,accuracy,left,0.5,15,training_1,7627,0.5,1,-1
0.464479999995092,180,0.5,20,V,-1,-1,accuracy,left,0.5,16,training_1,7627,0.5,1,-1
0.635985000000801,180,0.5,20,V,-1,-1,accuracy,left,0.5,17,training_1,7627,0.5,1,-1
0.477909999986878,180,0.5,20,V,-1,-1,accuracy,left,0.5,18,training_1,7627,0.5,1,-1
0.525485000020126,0,0.5,20,V,-1,-1,accuracy,right,0.5,19,training_1,7627,0.5,1,-1
0.49165000001085,180,0.5,20,V,-1,-1,accuracy,left,0.5,20,training_1,7627,0.5,1,-1
0.543280000012601,180,0.5,20,V,-1,-1,accuracy,left,0.5,21,training_1,7627,0.5,1,-1
0.619505000009667,0,0.5,20,V,-1,-1,accuracy,right,0.5,22,training_1,7627,0.5,1,-1
0.458320000005187,0,0.5,20,V,-1,-1,accuracy,right,0.5,23,training_1,7627,0.5,1,-1
0.476005000004079,0,0.5,20,V,-1,-1,accuracy,right,0.5,24,training_1,7627,0.5,1,-1
1.52215999999316,180,0.2,20,V,-1,-1,accuracy,left,0.2,1,training_2,7627,0.2,0,-1
0.634625000006054,180,0.2,20,V,-1,-1,accuracy,left,0.2,2,training_2,7627,0.2,1,-1
0.770499999984168,0,0.2,20,V,-1,-1,accuracy,right,0.2,3,training_2,7627,0.2,0,-1
1.050270000007,0,0.2,20,V,-1,-1,accuracy,right,0.2,4,training_2,7627,0.2,1,-1
0.653560000006109,180,0.2,20,V,-1,-1,accuracy,left,0.2,5,training_2,7627,0.2,0,-1
1.82996500001173,0,0.2,20,V,-1,-1,accuracy,right,0.2,6,training_2,7627,0.2,0,-1
1.93763500000932,180,0.2,20,V,-1,-1,accuracy,left,0.2,7,training_2,7627,0.2,0,-1
1.17938499999582,0,0.2,20,V,-1,-1,accuracy,right,0.2,8,training_2,7627,0.2,1,-1
2.26266999999643,180,0.2,20,V,-1,-1,accuracy,left,0.2,9,training_2,7627,0.2,0,-1
2.47852000000421,0,0.2,20,V,-1,-1,accuracy,right,0.2,10,training_2,7627,0.2,1,-1
3.23604000001797,0,0.2,20,V,-1,-1,accuracy,right,0.2,11,training_2,7627,0.2,1,-1
2.02955000000657,180,0.2,20,V,-1,-1,accuracy,left,0.2,12,training_2,7627,0.2,0,-1
1.0582599999907,180,0.2,20,V,-1,-1,accuracy,left,0.2,13,training_2,7627,0.2,1,-1
0.986295000009704,0,0.2,20,V,-1,-1,accuracy,right,0.2,14,training_2,7627,0.2,0,-1
1.34402499999851,0,0.2,20,V,-1,-1,accuracy,right,0.2,15,training_2,7627,0.2,1,-1
0.851029999990715,0,0.2,20,V,-1,-1,accuracy,right,0.2,16,training_2,7627,0.2,1,-1
0.979634999996051,180,0.2,20,V,-1,-1,accuracy,left,0.2,17,training_2,7627,0.2,0,-1
1.83180000001448,180,0.2,20,V,-1,-1,accuracy,left,0.2,18,training_2,7627,0.2,0,-1
1.86844500000007,0,0.2,20,V,-1,-1,accuracy,right,0.2,19,training_2,7627,0.2,1,-1
0.86672499999986,180,0.2,20,V,-1,-1,accuracy,left,0.2,20,training_2,7627,0.2,1,-1
1.08052499999758,180,0.2,20,V,-1,-1,accuracy,left,0.2,21,training_2,7627,0.2,0,-1
1.0549099999771,0,0.2,20,V,-1,-1,accuracy,right,0.2,22,training_2,7627,0.2,1,-1
1.17600000000675,180,0.2,20,V,-1,-1,accuracy,left,0.2,23,training_2,7627,0.2,0,-1
1.40131499999552,0,0.2,20,V,-1,-1,accuracy,right,0.2,24,training_2,7627,0.2,0,-1
0.770275000017136,180,0.2,20,V,-1,-1,accuracy,left,0.2,1,training_2,7627,0.2,0,-1
3.23908499997924,0,0.2,20,V,-1,-1,accuracy,right,0.2,2,training_2,7627,0.2,1,-1
0.968350000010105,0,0.2,20,V,-1,-1,accuracy,right,0.2,3,training_2,7627,0.2,1,-1
0.816325000021607,0,0.2,20,V,-1,-1,accuracy,right,0.2,4,training_2,7627,0.2,0,-1
3.36181500001112,0,0.2,20,V,-1,-1,accuracy,right,0.2,5,training_2,7627,0.2,0,-1
1.71593500001472,0,0.2,20,V,-1,-1,accuracy,right,0.2,6,training_2,7627,0.2,1,-1
0.84773999999743,180,0.2,20,V,-1,-1,accuracy,left,0.2,7,training_2,7627,0.2,0,-1
3.07570499999565,180,0.2,20,V,-1,-1,accuracy,left,0.2,8,training_2,7627,0.2,0,-1
0.981744999997318,180,0.2,20,V,-1,-1,accuracy,left,0.2,9,training_2,7627,0.2,0,-1
1.05883500000346,180,0.2,20,V,-1,-1,accuracy,left,0.2,10,training_2,7627,0.2,0,-1
0.923570000013569,0,0.2,20,V,-1,-1,accuracy,right,0.2,11,training_2,7627,0.2,1,-1
2.44759999998496,180,0.2,20,V,-1,-1,accuracy,left,0.2,12,training_2,7627,0.2,0,-1
4.17152500001248,0,0.2,20,V,-1,-1,accuracy,right,0.2,13,training_2,7627,0.2,0,-1
2.96515000000363,180,0.2,20,V,-1,-1,accuracy,left,0.2,14,training_2,7627,0.2,0,-1
0.708564999978989,0,0.2,20,V,-1,-1,accuracy,right,0.2,15,training_2,7627,0.2,1,-1
0.716104999999516,0,0.2,20,V,-1,-1,accuracy,right,0.2,16,training_2,7627,0.2,1,-1
1.21120499999961,180,0.2,20,V,-1,-1,accuracy,left,0.2,17,training_2,7627,0.2,0,-1
1.75858500000322,0,0.2,20,V,-1,-1,accuracy,right,0.2,18,training_2,7627,0.2,1,-1
0.765849999996135,180,0.2,20,V,-1,-1,accuracy,left,0.2,19,training_2,7627,0.2,0,-1
0.89705500000855,0,0.2,20,V,-1,-1,accuracy,right,0.2,20,training_2,7627,0.2,1,-1
4.61356500000693,180,0.2,20,V,-1,-1,accuracy,left,0.2,21,training_2,7627,0.2,1,-1
1.12044999998761,180,0.2,20,V,-1,-1,accuracy,left,0.2,22,training_2,7627,0.2,0,-1
0.846499999985099,0,0.2,20,V,-1,-1,accuracy,right,0.2,23,training_2,7627,0.2,0,-1
1.26080499999807,180,0.2,20,V,-1,-1,accuracy,left,0.2,24,training_2,7627,0.2,1,-1
0.864399999991292,0,0.2,20,V,70,2484.84000001918,accuracy,right,0.2,1,training_3,7627,0.2,1,70
0.742584999999963,180,0.2,20,V,68,5126.40999999712,accuracy,left,0.2,2,training_3,7627,0.2,1,68
1.70068999999785,0,0.2,20,V,50,3730.66000000108,accuracy,right,0.2,3,training_3,7627,0.2,0,50
1.77584500002558,180,0.2,20,V,46,2446.79999997607,accuracy,left,0.2,4,training_3,7627,0.2,1,46
4.63709000000381,180,0.2,20,V,51,1869.16500001098,accuracy,left,0.2,5,training_3,7627,0.2,0,51
1.94410999998217,0,0.2,20,V,82,987.034999998286,accuracy,right,0.2,6,training_3,7627,0.2,1,82
2.18314000000828,0,0.2,20,V,42,1560.95499999356,accuracy,right,0.2,7,training_3,7627,0.2,1,42
2.23621000000276,0,0.2,20,V,66,1746.35000000126,accuracy,right,0.2,8,training_3,7627,0.2,0,66
0.849995000025956,180,0.2,20,V,65,827.640000003157,accuracy,left,0.2,9,training_3,7627,0.2,0,65
0.809225000004517,0,0.2,20,V,71,646.594999998342,accuracy,right,0.2,10,training_3,7627,0.2,0,71
3.73639999999432,180,0.2,20,V,50,1393.60000001034,accuracy,left,0.2,11,training_3,7627,0.2,0,50
1.06331999998656,180,0.2,20,V,71,873.585000023013,accuracy,left,0.2,12,training_3,7627,0.2,0,71
0.859435000020312,0,0.2,20,V,82,1061.79000000702,accuracy,right,0.2,13,training_3,7627,0.2,0,82
1.43095000000903,0,0.2,20,V,66,830.965000001015,accuracy,right,0.2,14,training_3,7627,0.2,0,66
3.34382999999798,180,0.2,20,V,50,1328.93999997759,accuracy,left,0.2,15,training_3,7627,0.2,0,50
-0.001,180,0.2,20,V,50,1453.99000000907,accuracy,left,0.2,16,training_3,7627,0.2,0,50
0.871465000003809,0,0.2,20,V,46,2390.00499999383,accuracy,right,0.2,17,training_3,7627,0.2,1,46
0.611839999997756,180,0.2,20,V,61,719.624999997905,accuracy,left,0.2,18,training_3,7627,0.2,1,61
0.690964999987045,180,0.2,20,V,50,968.389999994542,accuracy,left,0.2,19,training_3,7627,0.2,1,50
1.05432999998447,180,0.2,20,V,65,1111.63499997929,accuracy,left,0.2,20,training_3,7627,0.2,1,65
0.706099999981234,0,0.2,20,V,64,677.075000014156,accuracy,right,0.2,21,training_3,7627,0.2,1,64
0.784724999975879,180,0.2,20,V,58,1270.89000001433,accuracy,left,0.2,22,training_3,7627,0.2,1,58
0.794274999992922,0,0.2,20,V,73,2036.87999999966,accuracy,right,0.2,23,training_3,7627,0.2,1,73
2.50069999997504,0,0.2,20,V,50,1774.49500001967,accuracy,right,0.2,24,training_3,7627,0.2,0,50
1.480750000017,180,0.2,20,V,62,1094.41999997944,accuracy,left,0.2,1,training_3,7627,0.2,1,62
0.692185000021709,0,0.2,20,V,84,982.199999998556,accuracy,right,0.2,2,training_3,7627,0.2,0,84
1.24721000000136,0,0.2,20,V,72,1485.15500000212,accuracy,right,0.2,3,training_3,7627,0.2,0,72
0.908899999980349,0,0.2,20,V,53,1023.82000000216,accuracy,right,0.2,4,training_3,7627,0.2,0,53
0.95621500001289,180,0.2,20,V,71,865.689999976894,accuracy,left,0.2,5,training_3,7627,0.2,0,71
0.862134999973932,180,0.2,20,V,70,914.885000005597,accuracy,left,0.2,6,training_3,7627,0.2,0,70
1.29684000002453,180,0.2,20,V,74,841.55500002089,accuracy,left,0.2,7,training_3,7627,0.2,0,74
2.32342999998946,0,0.2,20,V,41,1550.06499998854,accuracy,right,0.2,8,training_3,7627,0.2,0,41
0.868914999999106,180,0.2,20,V,57,842.539999983273,accuracy,left,0.2,9,training_3,7627,0.2,0,57
1.18689000001177,0,0.2,20,V,15,1614.83500001486,accuracy,right,0.2,10,training_3,7627,0.2,0,15
1.50285000001895,180,0.2,20,V,56,1407.15500002261,accuracy,left,0.2,11,training_3,7627,0.2,1,56
0.828049999981886,0,0.2,20,V,68,671.275000000605,accuracy,right,0.2,12,training_3,7627,0.2,0,68
1.60296499999822,180,0.2,20,V,72,1807.63499997556,accuracy,left,0.2,13,training_3,7627,0.2,0,72
0.733585000009043,0,0.2,20,V,73,782.439999980852,accuracy,right,0.2,14,training_3,7627,0.2,1,73
0.874790000001667,0,0.2,20,V,86,714.530000026571,accuracy,right,0.2,15,training_3,7627,0.2,0,86
1.2797900000005,180,0.2,20,V,72,727.545000001555,accuracy,left,0.2,16,training_3,7627,0.2,1,72
0.615455000021029,180,0.2,20,V,81,810.084999975516,accuracy,left,0.2,17,training_3,7627,0.2,0,81
0.565200000011828,180,0.2,20,V,67,646.024999994552,accuracy,left,0.2,18,training_3,7627,0.2,1,67
0.723924999998417,0,0.2,20,V,50,2561.07999998494,accuracy,right,0.2,19,training_3,7627,0.2,0,50
1.24683000001824,0,0.2,20,V,70,473.050000000512,accuracy,right,0.2,20,training_3,7627,0.2,1,70
0.713725000008708,180,0.2,20,V,74,1263.01500000409,accuracy,left,0.2,21,training_3,7627,0.2,0,74
0.638139999995474,0,0.2,20,V,69,998.104999976931,accuracy,right,0.2,22,training_3,7627,0.2,1,69
0.904424999986077,180,0.2,20,V,73,991.605000017444,accuracy,left,0.2,23,training_3,7627,0.2,0,73
0.771744999976363,0,0.2,20,V,75,623.10000002617,accuracy,right,0.2,24,training_3,7627,0.2,1,75
0.756759999989299,0,0.2,20,V,72,1158.12000000733,accuracy,right,0.2,1,training_3,7627,0.2,1,72
0.903555000026245,0,0.2,20,V,67,1094.53000000212,accuracy,right,0.2,2,training_3,7627,0.2,1,67
0.939305000007153,180,0.2,20,V,71,687.405000004219,accuracy,left,0.2,3,training_3,7627,0.2,0,71
0.815880000009201,0,0.2,20,V,70,685.979999980191,accuracy,right,0.2,4,training_3,7627,0.2,0,70
0.670889999979408,0,0.2,20,V,76,1064.66000000364,accuracy,right,0.2,5,training_3,7627,0.2,0,76
0.446074999985285,180,0.2,20,V,73,694.519999990007,accuracy,left,0.2,6,training_3,7627,0.2,1,73
0.759279999998398,180,0.2,20,V,77,741.160000005038,accuracy,left,0.2,7,training_3,7627,0.2,0,77
0.645394999999553,180,0.2,20,V,71,1117.91500000982,accuracy,left,0.2,8,training_3,7627,0.2,1,71
0.643925000011222,0,0.2,20,V,72,604.380000004312,accuracy,right,0.2,9,training_3,7627,0.2,1,72
0.561005000025034,0,0.2,20,V,73,1286.72999999253,accuracy,right,0.2,10,training_3,7627,0.2,1,73
0.574744999990799,180,0.2,20,V,74,743.314999999711,accuracy,left,0.2,11,training_3,7627,0.2,1,74
0.603320000023814,180,0.2,20,V,78,461.584999982733,accuracy,left,0.2,12,training_3,7627,0.2,0,78
0.680525000003399,0,0.2,20,V,83,607.514999981504,accuracy,right,0.2,13,training_3,7627,0.2,0,83
0.531224999984261,180,0.2,20,V,73,706.005000014557,accuracy,left,0.2,14,training_3,7627,0.2,1,73
0.596790000010515,0,0.2,20,V,78,1138.56999998097,accuracy,right,0.2,15,training_3,7627,0.2,0,78
0.563740000012331,0,0.2,20,V,79,798.305000003893,accuracy,right,0.2,16,training_3,7627,0.2,0,79
0.633600000001024,180,0.2,20,V,82,656.725000008009,accuracy,left,0.2,17,training_3,7627,0.2,0,82
0.626179999992019,0,0.2,20,V,73,757.390000013402,accuracy,right,0.2,18,training_3,7627,0.2,0,73
0.608039999991888,180,0.2,20,V,47,718.114999996033,accuracy,left,0.2,19,training_3,7627,0.2,0,47
0.70564000000013,180,0.2,20,V,28,736.414999992121,accuracy,left,0.2,20,training_3,7627,0.2,0,28
1.01316000000224,0,0.2,20,V,58,2840.45999997761,accuracy,right,0.2,21,training_3,7627,0.2,0,58
0.657340000005206,180,0.2,20,V,70,915.949999995064,accuracy,left,0.2,22,training_3,7627,0.2,0,70
0.538159999996424,0,0.2,20,V,68,607.03499999363,accuracy,right,0.2,23,training_3,7627,0.2,0,68
0.982675000006566,180,0.2,20,V,71,533.96500000963,accuracy,left,0.2,24,training_3,7627,0.2,0,71
0.852090000000317,0,0.2,20,V,50,1683.52000002051,accuracy,right,0.2,1,training_3,7627,0.2,1,50
0.617189999989932,0,0.2,20,V,70,501.779999991413,accuracy,right,0.2,2,training_3,7627,0.2,1,70
1.09032499999739,180,0.2,20,V,63,637.095000012778,accuracy,left,0.2,3,training_3,7627,0.2,1,63
0.660059999994701,0,0.2,20,V,74,679.830000008224,accuracy,right,0.2,4,training_3,7627,0.2,0,74
0.751445000001695,180,0.2,20,V,70,693.335000018124,accuracy,left,0.2,5,training_3,7627,0.2,0,70
0.584919999993872,180,0.2,20,V,68,675.004999997327,accuracy,left,0.2,6,training_3,7627,0.2,1,68
0.670254999975441,180,0.2,20,V,71,967.769999988377,accuracy,left,0.2,7,training_3,7627,0.2,0,71
0.656809999985853,180,0.2,20,V,68,842.940000002272,accuracy,left,0.2,8,training_3,7627,0.2,1,68
1.54433499998413,0,0.2,20,V,66,630.750000011176,accuracy,right,0.2,9,training_3,7627,0.2,1,66
0.808000000019092,180,0.2,20,V,69,650.155000010272,accuracy,left,0.2,10,training_3,7627,0.2,0,69
0.717340000002878,0,0.2,20,V,48,1127.50999999116,accuracy,right,0.2,11,training_3,7627,0.2,0,48
0.971395000000484,0,0.2,20,V,82,999.515000003157,accuracy,right,0.2,12,training_3,7627,0.2,0,82
1.29271000000881,180,0.2,20,V,40,1485.16000001109,accuracy,left,0.2,13,training_3,7627,0.2,1,40
3.29245499998797,0,0.2,20,V,50,1215.65500000725,accuracy,right,0.2,14,training_3,7627,0.2,1,50
0.581774999998743,0,0.2,20,V,61,469.960000016727,accuracy,right,0.2,15,training_3,7627,0.2,0,61
0.829220000014175,180,0.2,20,V,70,758.535000000848,accuracy,left,0.2,16,training_3,7627,0.2,0,70
0.639289999991888,0,0.2,20,V,77,701.785000012023,accuracy,right,0.2,17,training_3,7627,0.2,0,77
0.697550000011688,0,0.2,20,V,76,926.539999985835,accuracy,right,0.2,18,training_3,7627,0.2,1,76
0.630729999975301,180,0.2,20,V,74,840.475000004517,accuracy,left,0.2,19,training_3,7627,0.2,1,74
0.587720000010449,180,0.2,20,V,84,734.42000002251,accuracy,left,0.2,20,training_3,7627,0.2,1,84
0.557484999997541,0,0.2,20,V,77,983.180000010179,accuracy,right,0.2,21,training_3,7627,0.2,0,77
0.692499999975553,180,0.2,20,V,75,734.314999979688,accuracy,left,0.2,22,training_3,7627,0.2,1,75
1.67491000000155,180,0.2,20,V,76,729.634999996051,accuracy,left,0.2,23,training_3,7627,0.2,1,76
0.830219999974361,0,0.2,20,V,83,1060.02499998431,accuracy,right,0.2,24,training_3,7627,0.2,0,83
1.02190500000142,180,0.2,20,V,35,2102.39000001457,accuracy,left,0.2,1,training_3,7627,0.2,0,35
0.666285000013886,0,0.2,20,V,44,2232.91000002064,accuracy,right,0.2,2,training_3,7627,0.2,1,44
1.68914500001119,180,0.2,20,V,40,1183.02999998559,accuracy,left,0.2,3,training_3,7627,0.2,0,40
1.18269499999587,0,0.2,20,V,57,1839.34499998577,accuracy,right,0.2,4,training_3,7627,0.2,1,57
0.623269999981858,0,0.2,20,V,39,870.464999985415,accuracy,right,0.2,5,training_3,7627,0.2,0,39
0.622840000025462,180,0.2,20,V,79,954.185000009602,accuracy,left,0.2,6,training_3,7627,0.2,1,79
1.22017999997479,180,0.2,20,V,100,1278.96999998484,accuracy,left,0.2,7,training_3,7627,0.2,1,100
1.16289999999572,0,0.2,20,V,56,812.490000011167,accuracy,right,0.2,8,training_3,7627,0.2,1,56
1.35779500001809,0,0.2,20,V,66,922.829999995884,accuracy,right,0.2,9,training_3,7627,0.2,0,66
0.711760000005597,180,0.2,20,V,75,752.405000006547,accuracy,left,0.2,10,training_3,7627,0.2,1,75
0.807805000018561,0,0.2,20,V,40,845.59499999159,accuracy,right,0.2,11,training_3,7627,0.2,1,40
1.05345000000671,180,0.2,20,V,61,686.67500000447,accuracy,left,0.2,12,training_3,7627,0.2,1,61
1.40012499998556,180,0.2,20,V,65,822.855000005802,accuracy,left,0.2,13,training_3,7627,0.2,0,65
0.664755000005243,180,0.2,20,V,75,785.600000002887,accuracy,left,0.2,14,training_3,7627,0.2,1,75
1.41217500000494,0,0.2,20,V,32,690.320000023348,accuracy,right,0.2,15,training_3,7627,0.2,0,32
0.805235000007087,0,0.2,20,V,0,2042.43999999017,accuracy,right,0.2,16,training_3,7627,0.2,0,0
1.03078999998979,0,0.2,20,V,90,857.519999990473,accuracy,right,0.2,17,training_3,7627,0.2,1,90
1.75095499999588,180,0.2,20,V,61,632.340000011027,accuracy,left,0.2,18,training_3,7627,0.2,0,61
0.802664999995613,180,0.2,20,V,31,662.739999999758,accuracy,left,0.2,19,training_3,7627,0.2,1,31
1.32838500000071,180,0.2,20,V,72,830.64000000013,accuracy,left,0.2,20,training_3,7627,0.2,1,72
0.893345000018599,0,0.2,20,V,45,918.81000000285,accuracy,right,0.2,21,training_3,7627,0.2,0,45
1.86780499998713,0,0.2,20,V,70,663.804999989225,accuracy,right,0.2,22,training_3,7627,0.2,0,70
1.10589500001515,180,0.2,20,V,88,616.190000000643,accuracy,left,0.2,23,training_3,7627,0.2,0,88
0.723900000011781,0,0.2,20,V,35,447.045000008075,accuracy,right,0.2,24,training_3,7627,0.2,0,35
0.581765000009909,180,0.2,20,V,68,1005.72499999544,accuracy,left,0.2,1,training_3,7627,0.2,1,68
0.545760000008158,0,0.2,20,V,67,789.489999995567,accuracy,right,0.2,2,training_3,7627,0.2,1,67
0.557365000015125,180,0.2,20,V,72,959.650000004331,accuracy,left,0.2,3,training_3,7627,0.2,0,72
0.534874999983003,0,0.2,20,V,77,775.304999988293,accuracy,right,0.2,4,training_3,7627,0.2,0,77
0.592115000006743,180,0.2,20,V,74,1334.74999997998,accuracy,left,0.2,5,training_3,7627,0.2,0,74
0.499920000002021,0,0.2,20,V,77,855.790000001434,accuracy,right,0.2,6,training_3,7627,0.2,0,77
0.73786000002292,0,0.2,20,V,81,680.999999982305,accuracy,right,0.2,7,training_3,7627,0.2,0,81
0.4664300000004,180,0.2,20,V,82,645.51499998197,accuracy,left,0.2,8,training_3,7627,0.2,1,82
0.538724999991246,0,0.2,20,V,78,690.389999974286,accuracy,right,0.2,9,training_3,7627,0.2,0,78
0.477395000023535,180,0.2,20,V,78,724.950000003446,accuracy,left,0.2,10,training_3,7627,0.2,1,78
0.790015000005951,0,0.2,20,V,65,767.959999997402,accuracy,right,0.2,11,training_3,7627,0.2,1,65
0.593540000001667,180,0.2,20,V,77,676.804999995511,accuracy,left,0.2,12,training_3,7627,0.2,1,77
0.754545000003418,180,0.2,20,V,71,836.825000005774,accuracy,left,0.2,13,training_3,7627,0.2,1,71
0.619949999992969,0,0.2,20,V,61,1289.53999999794,accuracy,right,0.2,14,training_3,7627,0.2,0,61
1.57679500000086,180,0.2,20,V,73,638.080000004265,accuracy,left,0.2,15,training_3,7627,0.2,1,73
0.804069999983767,0,0.2,20,V,64,583.370000007562,accuracy,right,0.2,16,training_3,7627,0.2,1,64
0.481374999973923,180,0.2,20,V,28,841.099999990547,accuracy,left,0.2,17,training_3,7627,0.2,1,28
1.15028500001063,0,0.2,20,V,58,765.05499999621,accuracy,right,0.2,18,training_3,7627,0.2,0,58
1.17110500001581,0,0.2,20,V,50,2551.61999998381,accuracy,right,0.2,19,training_3,7627,0.2,0,50
0.544779999996535,180,0.2,20,V,70,872.344999981578,accuracy,left,0.2,20,training_3,7627,0.2,1,70
0.706269999995129,0,0.2,20,V,66,899.67000001343,accuracy,right,0.2,21,training_3,7627,0.2,0,66
0.593055000004824,0,0.2,20,V,71,866.904999973485,accuracy,right,0.2,22,training_3,7627,0.2,0,71
0.97047499998007,180,0.2,20,V,64,611.730000004172,accuracy,left,0.2,23,training_3,7627,0.2,1,64
0.607404999987921,180,0.2,20,V,59,790.489999984857,accuracy,left,0.2,24,training_3,7627,0.2,0,59
0.589934999996331,180,0.2,20,V,63,2292.92000000714,accuracy,left,0.2,1,training_3,7627,0.2,0,63
0.661415000009583,180,0.2,20,V,71,1695.92500000726,accuracy,left,0.2,2,training_3,7627,0.2,0,71
0.777265000011539,180,0.2,20,V,63,692.38000002224,accuracy,left,0.2,3,training_3,7627,0.2,0,63
1.1805100000056,0,0.2,20,V,73,671.455000003334,accuracy,right,0.2,4,training_3,7627,0.2,1,73
0.760815000016009,180,0.2,20,V,61,495.060000015656,accuracy,left,0.2,5,training_3,7627,0.2,1,61
1.00619000001461,0,0.2,20,V,50,1491.91000001156,accuracy,right,0.2,6,training_3,7627,0.2,1,50
0.821785000007367,0,0.2,20,V,48,1376.22500001453,accuracy,right,0.2,7,training_3,7627,0.2,0,48
0.562814999982947,0,0.2,20,V,54,1058.40499998885,accuracy,right,0.2,8,training_3,7627,0.2,1,54
0.674654999980703,180,0.2,20,V,46,854.315000004135,accuracy,left,0.2,9,training_3,7627,0.2,1,46
0.676565000001574,0,0.2,20,V,50,738.020000018878,accuracy,right,0.2,10,training_3,7627,0.2,0,50
0.522249999979977,0,0.2,20,V,54,814.645000005839,accuracy,right,0.2,11,training_3,7627,0.2,0,54
0.692209999979241,180,0.2,20,V,59,623.239999986254,accuracy,left,0.2,12,training_3,7627,0.2,1,59
1.66535000002477,0,0.2,20,V,22,1217.18999999575,accuracy,right,0.2,13,training_3,7627,0.2,1,22
0.576390000001993,0,0.2,20,V,43,783.609999984037,accuracy,right,0.2,14,training_3,7627,0.2,0,43
0.740584999992279,0,0.2,20,V,56,777.015000028769,accuracy,right,0.2,15,training_3,7627,0.2,0,56
0.76500000001397,0,0.2,20,V,58,710.054999974091,accuracy,right,0.2,16,training_3,7627,0.2,1,58
1.63356499999645,180,0.2,20,V,56,680.650000023888,accuracy,left,0.2,17,training_3,7627,0.2,0,56
0.734070000005886,180,0.2,20,V,59,791.694999992615,accuracy,left,0.2,18,training_3,7627,0.2,0,59
0.711169999995036,0,0.2,20,V,55,1099.74499998498,accuracy,right,0.2,19,training_3,7627,0.2,0,55
1.09973499999614,180,0.2,20,V,59,999.649999983376,accuracy,left,0.2,20,training_3,7627,0.2,0,59
0.81945499998983,180,0.2,20,V,59,1230.81999999704,accuracy,left,0.2,21,training_3,7627,0.2,0,59
1.25462499997229,180,0.2,20,V,54,814.764999988256,accuracy,left,0.2,22,training_3,7627,0.2,0,54
1.09265500001493,180,0.2,20,V,61,892.024999979185,accuracy,left,0.2,23,training_3,7627,0.2,0,61
0.842340000002878,0,0.2,20,V,59,944.339999987278,accuracy,right,0.2,24,training_3,7627,0.2,1,59
0.633069999981672,0,0.2,20,V,53,1261.2150000059,accuracy,right,0.2,1,training_3,7627,0.2,1,53
0.614014999999199,180,0.2,20,V,60,687.94999999227,accuracy,left,0.2,2,training_3,7627,0.2,1,60
1.3688850000035,180,0.2,20,V,57,669.079999992391,accuracy,left,0.2,3,training_3,7627,0.2,1,57
0.692595000000438,0,0.2,20,V,59,687.249999988126,accuracy,right,0.2,4,training_3,7627,0.2,1,59
0.676060000027064,180,0.2,20,V,64,848.63000002224,accuracy,left,0.2,5,training_3,7627,0.2,0,64
1.2966600000218,0,0.2,20,V,63,778.155000007246,accuracy,right,0.2,6,training_3,7627,0.2,1,63
1.35807999997633,0,0.2,20,V,64,774.319999996806,accuracy,right,0.2,7,training_3,7627,0.2,1,64
3.12499000001117,0,0.2,20,V,55,788.744999998016,accuracy,right,0.2,8,training_3,7627,0.2,0,55
2.47349999999278,180,0.2,20,V,56,782.975000009174,accuracy,left,0.2,9,training_3,7627,0.2,0,56
0.739919999992708,180,0.2,20,V,55,910.499999998137,accuracy,left,0.2,10,training_3,7627,0.2,0,55
1.78007499998785,180,0.2,20,V,46,781.944999995176,accuracy,left,0.2,11,training_3,7627,0.2,0,46
0.705719999998109,0,0.2,20,V,50,751.634999993257,accuracy,right,0.2,12,training_3,7627,0.2,1,50
1.01023499999428,0,0.2,20,V,50,1390.11000000755,accuracy,right,0.2,13,training_3,7627,0.2,1,50
1.45868499999051,0,0.2,20,V,50,948.945000011008,accuracy,right,0.2,14,training_3,7627,0.2,1,50
1.02675000001909,180,0.2,20,V,50,743.249999999534,accuracy,left,0.2,15,training_3,7627,0.2,0,50
1.38116499999887,0,0.2,20,V,50,854.355000017677,accuracy,right,0.2,16,training_3,7627,0.2,1,50
1.45370500002173,180,0.2,20,V,50,684.225000004517,accuracy,left,0.2,17,training_3,7627,0.2,0,50
2.50563500000862,180,0.2,20,V,40,766.829999978654,accuracy,left,0.2,18,training_3,7627,0.2,0,40
1.72106500001973,180,0.2,20,V,50,701.849999983096,accuracy,left,0.2,19,training_3,7627,0.2,0,50
2.7366800000018,0,0.2,20,V,50,1048.62499999581,accuracy,right,0.2,20,training_3,7627,0.2,0,50
1.51665499998489,180,0.2,20,V,50,1053.41500000213,accuracy,left,0.2,21,training_3,7627,0.2,0,50
1.35015000001295,180,0.2,20,V,50,1294.5699999982,accuracy,left,0.2,22,training_3,7627,0.2,0,50
1.1927400000277,0,0.2,20,V,50,726.105000008829,accuracy,right,0.2,23,training_3,7627,0.2,1,50
0.978260000003502,0,0.2,20,V,50,845.36500001559,accuracy,right,0.2,24,training_3,7627,0.2,1,50
2.11939999999595,180,0.2,20,V,50,1305.42499999865,accuracy,left,0.2,1,training_3,7627,0.2,0,50
1.10592000000179,180,0.2,20,V,50,814.110000006622,accuracy,left,0.2,2,training_3,7627,0.2,0,50
2.73053000000073,180,0.2,20,V,50,1000.03999998444,accuracy,left,0.2,3,training_3,7627,0.2,1,50
0.845654999982798,0,0.2,20,V,50,734.270000015385,accuracy,right,0.2,4,training_3,7627,0.2,1,50
0.776350000000093,180,0.2,20,V,46,1556.76999999559,accuracy,left,0.2,5,training_3,7627,0.2,0,46
2.45401499999571,0,0.2,20,V,50,811.979999998584,accuracy,right,0.2,6,training_3,7627,0.2,0,50
1.06457499999669,0,0.2,20,V,50,661.025000008522,accuracy,right,0.2,7,training_3,7627,0.2,1,50
1.56667499998002,180,0.2,20,V,50,974.18000001926,accuracy,left,0.2,8,training_3,7627,0.2,0,50
1.56744000001345,0,0.2,20,V,50,1070.03000000259,accuracy,right,0.2,9,training_3,7627,0.2,0,50
1.20590000000084,0,0.2,20,V,50,814.310000016121,accuracy,right,0.2,10,training_3,7627,0.2,0,50
1.15568500000518,180,0.2,20,V,50,610.200000024633,accuracy,left,0.2,11,training_3,7627,0.2,1,50
3.39617999998154,0,0.2,20,V,50,1388.9349999954,accuracy,right,0.2,12,training_3,7627,0.2,0,50
1.89007999998285,0,0.2,20,V,50,1143.22500000708,accuracy,right,0.2,13,training_3,7627,0.2,0,50
0.960740000009537,180,0.2,20,V,50,775.579999986803,accuracy,left,0.2,14,training_3,7627,0.2,0,50
1.32300999999279,180,0.2,20,V,50,1251.02999998489,accuracy,left,0.2,15,training_3,7627,0.2,0,50
2.00188500000513,0,0.2,20,V,50,1031.80999998585,accuracy,right,0.2,16,training_3,7627,0.2,1,50
1.46886500000255,180,0.2,20,V,50,852.165000018431,accuracy,left,0.2,17,training_3,7627,0.2,0,50
2.06431000001612,180,0.2,20,V,50,1028.63499999512,accuracy,left,0.2,18,training_3,7627,0.2,1,50
3.73449000000255,0,0.2,20,V,50,816.884999978356,accuracy,right,0.2,19,training_3,7627,0.2,1,50
3.15731999999844,0,0.2,20,V,50,1117.80500001623,accuracy,right,0.2,20,training_3,7627,0.2,0,50
2.3672099999967,0,0.2,20,V,50,1386.75499998499,accuracy,right,0.2,21,training_3,7627,0.2,1,50
2.38345500000287,180,0.2,20,V,50,1770.63000001363,accuracy,left,0.2,22,training_3,7627,0.2,0,50
1.7757649999985,0,0.2,20,V,50,1055.36500000744,accuracy,right,0.2,23,training_3,7627,0.2,1,50
1.65273999999044,180,0.2,20,V,50,1654.72000002046,accuracy,left,0.2,24,training_3,7627,0.2,0,50
0.613465000002179,180,0.2,20,V,50,1128.50000002072,accuracy,left,0.2,1,training_3,7627,0.2,0,50
0.551739999995334,180,0.2,20,V,50,841.985000006389,accuracy,left,0.2,2,training_3,7627,0.2,0,50
0.297084999998333,0,0.2,20,V,50,742.79999997816,accuracy,right,0.2,3,training_3,7627,0.2,1,50
0.300185000000056,0,0.2,20,V,50,1475.98999997717,accuracy,right,0.2,4,training_3,7627,0.2,1,50
0.314104999997653,0,0.2,20,V,50,607.449999981327,accuracy,right,0.2,5,training_3,7627,0.2,1,50
0.257069999992382,180,0.2,20,V,50,852.459999994608,accuracy,left,0.2,6,training_3,7627,0.2,0,50
0.291594999987865,180,0.2,20,V,50,506.554999999935,accuracy,left,0.2,7,training_3,7627,0.2,0,50
0.266964999987977,180,0.2,20,V,50,837.14499999769,accuracy,left,0.2,8,training_3,7627,0.2,0,50
0.248564999987138,0,0.2,20,V,50,923.139999998966,accuracy,right,0.2,9,training_3,7627,0.2,1,50
0.247684999980265,180,0.2,20,V,50,1054.87500000163,accuracy,left,0.2,10,training_3,7627,0.2,0,50
0.264439999999013,0,0.2,20,V,50,1000.11500000255,accuracy,right,0.2,11,training_3,7627,0.2,1,50
0.273585000017192,0,0.2,20,V,50,748.760000016773,accuracy,right,0.2,12,training_3,7627,0.2,1,50
0.270199999999022,180,0.2,20,V,50,734.860000025947,accuracy,left,0.2,13,training_3,7627,0.2,0,50
0.308889999985695,180,0.2,20,V,50,824.475000001257,accuracy,left,0.2,14,training_3,7627,0.2,0,50
0.407280000013998,0,0.2,20,V,50,954.449999990175,accuracy,right,0.2,15,training_3,7627,0.2,1,50
0.290509999991627,180,0.2,20,V,50,735.899999999674,accuracy,left,0.2,16,training_3,7627,0.2,0,50
0.307555000006687,180,0.2,20,V,50,1392.84499999485,accuracy,left,0.2,17,training_3,7627,0.2,0,50
0.36264000000665,0,0.2,20,V,50,910.369999997783,accuracy,right,0.2,18,training_3,7627,0.2,1,50
0.482304999983171,0,0.2,20,V,50,773.604999994859,accuracy,right,0.2,19,training_3,7627,0.2,1,50
0.291055000008782,180,0.2,20,V,50,815.249999985099,accuracy,left,0.2,20,training_3,7627,0.2,0,50
0.34375,0,0.2,20,V,50,1137.55500002299,accuracy,right,0.2,21,training_3,7627,0.2,1,50
0.352529999974649,0,0.2,20,V,50,996.76000000909,accuracy,right,0.2,22,training_3,7627,0.2,1,50
0.34813500000746,180,0.2,20,V,50,1045.70999997668,accuracy,left,0.2,23,training_3,7627,0.2,0,50
0.322944999992615,0,0.2,20,V,50,2337.78999999049,accuracy,right,0.2,24,training_3,7627,0.2,1,50
0.685310000000754,0,0.2,20,V,69,1102.82500000903,accuracy,right,0.2,1,training_3,7627,0.2,1,69
0.378774999990128,180,0.2,20,V,79,1198.78999999491,accuracy,left,0.2,2,training_3,7627,0.2,1,79
0.34003500000108,180,0.2,20,V,87,997.204999992391,accuracy,left,0.2,3,training_3,7627,0.2,0,87
0.252180000010412,0,0.2,20,V,74,640.610000002198,accuracy,right,0.2,4,training_3,7627,0.2,0,74
0.364975000004051,180,0.2,20,V,79,742.32000001939,accuracy,left,0.2,5,training_3,7627,0.2,0,79
0.477779999986524,0,0.2,20,V,82,687.359999981709,accuracy,right,0.2,6,training_3,7627,0.2,0,82
0.316900000005262,180,0.2,20,V,82,783.530000015162,accuracy,left,0.2,7,training_3,7627,0.2,0,82
0.297125000011874,0,0.2,20,V,81,564.494999998715,accuracy,right,0.2,8,training_3,7627,0.2,0,81
0.272694999992382,180,0.2,20,V,84,584.345000010217,accuracy,left,0.2,9,training_3,7627,0.2,0,84
0.319610000005923,180,0.2,20,V,84,682.464999990771,accuracy,left,0.2,10,training_3,7627,0.2,1,84
0.334610000019893,0,0.2,20,V,84,765.545000002021,accuracy,right,0.2,11,training_3,7627,0.2,1,84
0.275125000014668,0,0.2,20,V,87,686.259999987669,accuracy,right,0.2,12,training_3,7627,0.2,0,87
1.16354000000865,0,0.2,20,V,87,733.635000011418,accuracy,right,0.2,13,training_3,7627,0.2,0,87
0.676949999993667,0,0.2,20,V,90,633.235000015702,accuracy,right,0.2,14,training_3,7627,0.2,1,90
0.32795000000624,180,0.2,20,V,96,1166.18499998003,accuracy,left,0.2,15,training_3,7627,0.2,1,96
0.427089999982854,180,0.2,20,V,91,653.339999989839,accuracy,left,0.2,16,training_3,7627,0.2,0,91
0.554589999985183,0,0.2,20,V,88,689.970000006724,accuracy,right,0.2,17,training_3,7627,0.2,0,88
0.293050000007497,0,0.2,20,V,92,992.540000006557,accuracy,right,0.2,18,training_3,7627,0.2,1,92
0.415399999998044,180,0.2,20,V,89,902.18500001356,accuracy,left,0.2,19,training_3,7627,0.2,1,89
0.500155000016093,180,0.2,20,V,88,638.115000008838,accuracy,left,0.2,20,training_3,7627,0.2,1,88
0.465625000011642,0,0.2,20,V,91,1075.94500001869,accuracy,right,0.2,21,training_3,7627,0.2,1,91
0.421189999993658,180,0.2,20,V,94,679.134999983944,accuracy,left,0.2,22,training_3,7627,0.2,1,94
0.40074499999173,0,0.2,20,V,85,544.620000000577,accuracy,right,0.2,23,training_3,7627,0.2,1,85
0.6575249999878,180,0.2,20,V,87,893.229999986943,accuracy,left,0.2,24,training_3,7627,0.2,1,87
0.621595000004163,0,0.2,20,V,72,1535.95499999938,accuracy,right,0.2,1,training_3,7627,0.2,1,72
4.11588500000653,0,0.2,20,V,82,660.304999997607,accuracy,right,0.2,2,training_3,7627,0.2,1,82
0.840555000002496,180,0.2,20,V,86,695.60000000638,accuracy,left,0.2,3,training_3,7627,0.2,1,86
0.785080000001471,0,0.2,20,V,65,918.575000017881,accuracy,right,0.2,4,training_3,7627,0.2,1,65
0.89480999999796,180,0.2,20,V,73,909.229999990202,accuracy,left,0.2,5,training_3,7627,0.2,1,73
0.578529999998864,180,0.2,20,V,69,793.955000001006,accuracy,left,0.2,6,training_3,7627,0.2,0,69
0.568989999999758,180,0.2,20,V,86,681.455000012647,accuracy,left,0.2,7,training_3,7627,0.2,1,86
0.564734999992652,180,0.2,20,V,60,736.31999999634,accuracy,left,0.2,8,training_3,7627,0.2,1,60
0.893729999981588,0,0.2,20,V,85,759.989999991376,accuracy,right,0.2,9,training_3,7627,0.2,1,85
0.503819999983534,0,0.2,20,V,80,686.594999977387,accuracy,right,0.2,10,training_3,7627,0.2,0,80
1.2501850000117,180,0.2,20,V,75,533.024999982445,accuracy,left,0.2,11,training_3,7627,0.2,1,75
2.591860000015,0,0.2,20,V,70,854.515000013635,accuracy,right,0.2,12,training_3,7627,0.2,0,70
0.622925000003306,180,0.2,20,V,79,1396.81000000564,accuracy,left,0.2,13,training_3,7627,0.2,0,79
1.26172000000952,180,0.2,20,V,76,982.260000018869,accuracy,left,0.2,14,training_3,7627,0.2,0,76
0.820589999988442,0,0.2,20,V,76,782.64499999932,accuracy,right,0.2,15,training_3,7627,0.2,1,76
0.628170000010869,180,0.2,20,V,80,531.784999999218,accuracy,left,0.2,16,training_3,7627,0.2,1,80
1.25317499999073,0,0.2,20,V,88,1006.3000000082,accuracy,right,0.2,17,training_3,7627,0.2,0,88
0.61458500000299,0,0.2,20,V,77,635.865000018384,accuracy,right,0.2,18,training_3,7627,0.2,0,77
1.41782500001136,0,0.2,20,V,84,779.569999984233,accuracy,right,0.2,19,training_3,7627,0.2,1,84
0.710909999994328,0,0.2,20,V,80,628.179999999702,accuracy,right,0.2,20,training_3,7627,0.2,0,80
0.658809999993537,180,0.2,20,V,79,642.640000005485,accuracy,left,0.2,21,training_3,7627,0.2,1,79
1.0688599999994,0,0.2,20,V,77,622.120000014547,accuracy,right,0.2,22,training_3,7627,0.2,0,77
0.782000000006519,180,0.2,20,V,84,853.925000003073,accuracy,left,0.2,23,training_3,7627,0.2,1,84
0.923360000015236,180,0.2,20,V,81,941.139999980805,accuracy,left,0.2,24,training_3,7627,0.2,0,81
0.613365000026533,180,0.2,20,V,83,2223.77499999129,accuracy,left,0.2,1,training_3,7627,0.2,0,83
0.540990000008605,180,0.2,20,V,74,693.780000001425,accuracy,left,0.2,2,training_3,7627,0.2,1,74
0.667485000012675,180,0.2,20,V,71,576.375000004191,accuracy,left,0.2,3,training_3,7627,0.2,0,71
0.74110000001383,0,0.2,20,V,76,717.470000003232,accuracy,right,0.2,4,training_3,7627,0.2,1,76
0.931629999977304,180,0.2,20,V,79,2076.30499999505,accuracy,left,0.2,5,training_3,7627,0.2,0,79
0.621719999995548,0,0.2,20,V,74,957.499999989523,accuracy,right,0.2,6,training_3,7627,0.2,0,74
0.536874999990687,0,0.2,20,V,79,970.409999979893,accuracy,right,0.2,7,training_3,7627,0.2,1,79
0.711544999998296,180,0.2,20,V,77,837.269999989076,accuracy,left,0.2,8,training_3,7627,0.2,1,77
0.66335000001709,0,0.2,20,V,84,977.675000001909,accuracy,right,0.2,9,training_3,7627,0.2,1,84
1.04003499998362,0,0.2,20,V,84,647.289999993518,accuracy,right,0.2,10,training_3,7627,0.2,1,84
0.638570000010077,180,0.2,20,V,83,693.744999996852,accuracy,left,0.2,11,training_3,7627,0.2,0,83
1.4660449999792,0,0.2,20,V,82,733.334999997169,accuracy,right,0.2,12,training_3,7627,0.2,1,82
2.75392499999725,180,0.2,20,V,76,1087.36999999383,accuracy,left,0.2,13,training_3,7627,0.2,0,76
0.696365000010701,0,0.2,20,V,72,692.460000020219,accuracy,right,0.2,14,training_3,7627,0.2,0,72
0.788514999992913,0,0.2,20,V,87,744.315000018105,accuracy,right,0.2,15,training_3,7627,0.2,1,87
1.26396999999997,0,0.2,20,V,76,862.690000009025,accuracy,right,0.2,16,training_3,7627,0.2,1,76
0.866089999995893,180,0.2,20,V,82,726.450000016484,accuracy,left,0.2,17,training_3,7627,0.2,0,82
0.836379999993369,0,0.2,20,V,73,764.104999980191,accuracy,right,0.2,18,training_3,7627,0.2,1,73
1.17384000000311,180,0.2,20,V,77,709.934999991674,accuracy,left,0.2,19,training_3,7627,0.2,0,77
0.63980000000447,180,0.2,20,V,84,800.105000002077,accuracy,left,0.2,20,training_3,7627,0.2,1,84
0.61904499999946,180,0.2,20,V,84,697.699999989709,accuracy,left,0.2,21,training_3,7627,0.2,0,84
0.928824999980861,0,0.2,20,V,81,704.389999998966,accuracy,right,0.2,22,training_3,7627,0.2,1,81
4.38465500000166,180,0.2,20,V,79,593.605000001844,accuracy,left,0.2,23,training_3,7627,0.2,0,79
0.699705000006361,0,0.2,20,V,75,706.760000000941,accuracy,right,0.2,24,training_3,7627,0.2,0,75
0.884894999995595,180,0.2,20,V,63,1213.7099999818,accuracy,left,0.2,1,training_3,7627,0.2,1,63
1.0124749999959,180,0.2,20,V,72,776.445000024978,accuracy,left,0.2,2,training_3,7627,0.2,0,72
0.757004999992205,0,0.2,20,V,72,790.750000014668,accuracy,right,0.2,3,training_3,7627,0.2,1,72
3.36790499999211,0,0.2,20,V,57,1640.72999998461,accuracy,right,0.2,4,training_3,7627,0.2,0,57
0.56256500000041,180,0.2,20,V,72,692.860000009649,accuracy,left,0.2,5,training_3,7627,0.2,0,72
1.28770999997482,0,0.2,20,V,69,677.460000006016,accuracy,right,0.2,6,training_3,7627,0.2,0,69
3.41778499999829,0,0.2,20,V,61,1429.08500001114,accuracy,right,0.2,7,training_3,7627,0.2,0,61
1.05089999997336,180,0.2,20,V,76,1062.31999999704,accuracy,left,0.2,8,training_3,7627,0.2,0,76
1.39475999999559,180,0.2,20,V,70,1108.16000000341,accuracy,left,0.2,9,training_3,7627,0.2,1,70
0.931710000004154,0,0.2,20,V,75,547.045000013895,accuracy,right,0.2,10,training_3,7627,0.2,1,75
0.703580000001471,0,0.2,20,V,78,543.715000007302,accuracy,right,0.2,11,training_3,7627,0.2,1,78
0.726114999997895,180,0.2,20,V,72,598.835000011139,accuracy,left,0.2,12,training_3,7627,0.2,1,72
2.98516000001132,180,0.2,20,V,65,845.009999989998,accuracy,left,0.2,13,training_3,7627,0.2,1,65
1.84404999998491,180,0.2,20,V,63,839.300000021234,accuracy,left,0.2,14,training_3,7627,0.2,0,63
1.09697000001278,180,0.2,20,V,73,1125.48499999661,accuracy,left,0.2,15,training_3,7627,0.2,0,73
0.817615000006743,0,0.2,20,V,83,942.440000013448,accuracy,right,0.2,16,training_3,7627,0.2,0,83
1.98490000001015,180,0.2,20,V,75,822.849999996834,accuracy,left,0.2,17,training_3,7627,0.2,1,75
1.0715799999889,0,0.2,20,V,77,1053.85999998543,accuracy,right,0.2,18,training_3,7627,0.2,1,77
0.870155000011437,180,0.2,20,V,79,760.220000025351,accuracy,left,0.2,19,training_3,7627,0.2,0,79
1.63249499999825,0,0.2,20,V,73,662.164999986999,accuracy,right,0.2,20,training_3,7627,0.2,0,73
0.968829999997746,0,0.2,20,V,45,951.570000004955,accuracy,right,0.2,21,training_3,7627,0.2,0,45
0.771500000002794,0,0.2,20,V,82,663.255000021309,accuracy,right,0.2,22,training_3,7627,0.2,1,82
0.761700000002515,0,0.2,20,V,70,616.784999991301,accuracy,right,0.2,23,training_3,7627,0.2,0,70
1.88388999999687,180,0.2,20,V,70,942.665000009816,accuracy,left,0.2,24,training_3,7627,0.2,1,70
0.587265000008978,0,0.2,20,V,65,1487.82000000915,accuracy,right,0.2,1,training_3,7627,0.2,1,65
0.72470500000054,180,0.2,20,V,38,1152.74499999965,accuracy,left,0.2,2,training_3,7627,0.2,1,38
3.73785499998461,0,0.2,20,V,73,687.429999990854,accuracy,right,0.2,3,training_3,7627,0.2,1,73
0.599975000019185,180,0.2,20,V,58,1181.89999999572,accuracy,left,0.2,4,training_3,7627,0.2,1,58
0.612764999998268,180,0.2,20,V,35,1062.86000000546,accuracy,left,0.2,5,training_3,7627,0.2,1,35
0.534014999982901,0,0.2,20,V,66,670.345000020228,accuracy,right,0.2,6,training_3,7627,0.2,1,66
0.793430000019725,180,0.2,20,V,58,595.30999997491,accuracy,left,0.2,7,training_3,7627,0.2,1,58
1.55079000000842,0,0.2,20,V,24,1079.62000000384,accuracy,right,0.2,8,training_3,7627,0.2,0,24
0.921425000008196,180,0.2,20,V,50,1017.72999999253,accuracy,left,0.2,9,training_3,7627,0.2,0,50
0.820544999994803,180,0.2,20,V,58,822.184999997262,accuracy,left,0.2,10,training_3,7627,0.2,1,58
0.65707499999553,0,0.2,20,V,50,1048.90000002366,accuracy,right,0.2,11,training_3,7627,0.2,1,50
1.10318000000576,0,0.2,20,V,50,800.080000014976,accuracy,right,0.2,12,training_3,7627,0.2,0,50
1.3342350000171,180,0.2,20,V,50,838.985000009649,accuracy,left,0.2,13,training_3,7627,0.2,0,50
1.80434500001185,0,0.2,20,V,26,902.815000008792,accuracy,right,0.2,14,training_3,7627,0.2,0,26
1.26976000002492,0,0.2,20,V,57,940.199999982491,accuracy,right,0.2,15,training_3,7627,0.2,0,57
0.830629999982193,180,0.2,20,V,95,1253.62999999244,accuracy,left,0.2,16,training_3,7627,0.2,1,95
0.653980000002775,180,0.2,20,V,61,1464.67499999562,accuracy,left,0.2,17,training_3,7627,0.2,1,61
0.492100000003353,0,0.2,20,V,78,647.324999997858,accuracy,right,0.2,18,training_3,7627,0.2,0,78
0.706540000013541,180,0.2,20,V,59,842.690000019502,accuracy,left,0.2,19,training_3,7627,0.2,0,59
1.69037999998592,0,0.2,20,V,31,598.354999994859,accuracy,right,0.2,20,training_3,7627,0.2,1,31
0.713835000001825,180,0.2,20,V,57,671.410000009928,accuracy,left,0.2,21,training_3,7627,0.2,1,57
0.664879999996629,0,0.2,20,V,74,935.425000003073,accuracy,right,0.2,22,training_3,7627,0.2,1,74
0.550289999985136,180,0.2,20,V,39,1262.28500000481,accuracy,left,0.2,23,training_3,7627,0.2,1,39
1.04720000000112,0,0.2,20,V,56,843.529999983497,accuracy,right,0.2,24,training_3,7627,0.2,1,56
1.82242499999097,180,0.2,20,V,62,1834.4250000082,accuracy,left,0.2,1,experimental,7627,0.2,1,62
1.12520500001824,180,0.2,20,V,56,990.340000018477,accuracy,left,0.2,2,experimental,7627,0.2,1,56
4.8342349999873,180,0.2,20,V,58,810.109999991022,accuracy,left,0.2,3,experimental,7627,0.2,1,58
4.66852500001574,180,0.2,20,V,58,860.500000010245,accuracy,left,0.2,4,experimental,7627,0.2,0,58
4.78020000000857,0,0.2,20,V,68,663.360000005923,accuracy,right,0.2,5,experimental,7627,0.2,1,68
2.18282000001613,0,0.2,20,V,59,721.109999983571,accuracy,right,0.2,6,experimental,7627,0.2,1,59
2.20853500001226,0,0.2,20,V,67,732.300000003073,accuracy,right,0.2,7,experimental,7627,0.2,1,67
1.16821500001196,0,0.2,20,V,71,744.035000010859,accuracy,right,0.2,8,experimental,7627,0.2,0,71
1.74155000000633,0,0.2,20,V,61,669.764999998733,accuracy,right,0.2,9,experimental,7627,0.2,1,61
0.924300000013318,180,0.2,20,V,75,706.219999992289,accuracy,left,0.2,10,experimental,7627,0.2,0,75
1.202289999987,0,0.2,20,V,72,663.309999974445,accuracy,right,0.2,11,experimental,7627,0.2,1,72
1.69320500001777,180,0.2,20,V,75,1032.32999998704,accuracy,left,0.2,12,experimental,7627,0.2,0,75
1.09326999998325,0,0.2,20,V,71,782.999999995343,accuracy,right,0.2,13,experimental,7627,0.2,1,71
1.7164400000181,180,0.2,20,V,77,790.304999973159,accuracy,left,0.2,14,experimental,7627,0.2,0,77
4.03515499999048,180,0.2,20,V,76,711.400000000373,accuracy,left,0.2,15,experimental,7627,0.2,1,76
1.91668999998365,0,0.2,20,V,67,671.239999996033,accuracy,right,0.2,16,experimental,7627,0.2,1,67
2.08217999999784,180,0.2,20,V,68,695.225000002887,accuracy,left,0.2,17,experimental,7627,0.2,0,68
2.7620400000019,0,0.2,20,V,73,643.400000000838,accuracy,right,0.2,18,experimental,7627,0.2,1,73
2.33115499999281,180,0.2,20,V,74,597.529999998864,accuracy,left,0.2,19,experimental,7627,0.2,0,74
2.28584500000579,180,0.2,20,V,81,486.514999996871,accuracy,left,0.2,20,experimental,7627,0.2,0,81
2.54361999998195,0,0.2,20,V,66,572.19999999553,accuracy,right,0.2,21,experimental,7627,0.2,1,66
2.75010499998461,180,0.2,20,V,63,982.435000012629,accuracy,left,0.2,22,experimental,7627,0.2,0,63
-0.001,0,0.2,20,V,50,1271.92999998806,accuracy,right,0.2,23,experimental,7627,0.2,0,50
3.15965499999607,0,0.2,20,V,69,1309.5350000076,accuracy,right,0.2,24,experimental,7627,0.2,0,69
2.4632450000206,180,0.2,20,V,64,1000.49000000581,accuracy,left,0.2,25,experimental,7627,0.2,1,64
2.30991000001039,0,0.2,20,V,61,949.129999993835,accuracy,right,0.2,26,experimental,7627,0.2,1,61
2.32198499998776,0,0.2,20,V,67,729.309999994934,accuracy,right,0.2,27,experimental,7627,0.2,0,67
1.32798500001105,0,0.2,20,V,70,741.234999994282,accuracy,right,0.2,28,experimental,7627,0.2,1,70
1.30726500001037,180,0.2,20,V,69,714.124999998137,accuracy,left,0.2,29,experimental,7627,0.2,1,69
1.6305199999772,180,0.2,20,V,67,663.625000015367,accuracy,left,0.2,30,experimental,7627,0.2,0,67
2.13421499999845,0,0.2,20,V,64,766.00999999186,accuracy,right,0.2,31,experimental,7627,0.2,1,64
1.33639000001131,180,0.2,20,V,71,700.974999984726,accuracy,left,0.2,32,experimental,7627,0.2,0,71
1.6093899999978,180,0.2,20,V,62,769.075000018347,accuracy,left,0.2,33,experimental,7627,0.2,0,62
3.61409999997681,0,0.2,20,V,74,922.025000007357,accuracy,right,0.2,34,experimental,7627,0.2,1,74
2.38702000002377,180,0.2,20,V,67,874.920000002254,accuracy,left,0.2,35,experimental,7627,0.2,0,67
1.01952999999048,0,0.2,20,V,66,822.150000021793,accuracy,right,0.2,36,experimental,7627,0.2,0,66
1.48440500002448,0,0.2,20,V,73,653.315000003204,accuracy,right,0.2,37,experimental,7627,0.2,0,73
2.54102999999328,0,0.2,20,V,62,708.915000024252,accuracy,right,0.2,38,experimental,7627,0.2,0,62
1.19837999998685,0,0.2,20,V,67,710.889999987558,accuracy,right,0.2,39,experimental,7627,0.2,1,67
1.12261500000022,180,0.2,20,V,81,676.865000016056,accuracy,left,0.2,40,experimental,7627,0.2,1,81
1.77997999999207,180,0.2,20,V,75,710.164999996778,accuracy,left,0.2,41,experimental,7627,0.2,1,75
0.825864999991842,0,0.2,20,V,70,855.820000025909,accuracy,right,0.2,42,experimental,7627,0.2,1,70
0.865109999984503,180,0.2,20,V,71,766.064999974333,accuracy,left,0.2,43,experimental,7627,0.2,0,71
0.875315000012051,0,0.2,20,V,75,751.734999998007,accuracy,right,0.2,44,experimental,7627,0.2,0,75
0.785990000003949,180,0.2,20,V,83,709.41999999946,accuracy,left,0.2,45,experimental,7627,0.2,1,83
0.863225000008475,180,0.2,20,V,72,1151.37000000663,accuracy,left,0.2,46,experimental,7627,0.2,1,72
1.31282500000112,180,0.2,20,V,84,883.414999988861,accuracy,left,0.2,47,experimental,7627,0.2,1,84
1.35748000000603,0,0.2,20,V,79,678.750000020955,accuracy,right,0.2,48,experimental,7627,0.2,0,79
1.89426000000117,0,0.2,20,V,77,615.240000013728,accuracy,right,0.2,49,experimental,7627,0.2,0,77
2.62360999998078,0,0.2,20,V,71,531.949999975041,accuracy,right,0.2,50,experimental,7627,0.2,0,71
1.14392500001146,180,0.2,20,V,78,1500.28500001598,accuracy,left,0.2,51,experimental,7627,0.2,0,78
1.90800500000501,180,0.2,20,V,77,873.404999990948,accuracy,left,0.2,52,experimental,7627,0.2,1,77
0.896580000001006,180,0.2,20,V,79,746.240000007674,accuracy,left,0.2,53,experimental,7627,0.2,0,79
0.918325000005774,180,0.2,20,V,79,532.875000004191,accuracy,left,0.2,54,experimental,7627,0.2,0,79
0.837640000012238,0,0.2,20,V,78,700.81999999797,accuracy,right,0.2,55,experimental,7627,0.2,0,78
0.811210000014864,0,0.2,20,V,77,801.709999999497,accuracy,right,0.2,56,experimental,7627,0.2,1,77
0.723714999999851,180,0.2,20,V,85,963.125000009313,accuracy,left,0.2,57,experimental,7627,0.2,1,85
0.778085000026971,0,0.2,20,V,85,759.300000005402,accuracy,right,0.2,58,experimental,7627,0.2,0,85
1.09569000001671,0,0.2,20,V,86,748.809999990277,accuracy,right,0.2,59,experimental,7627,0.2,0,86
0.714819999993779,180,0.2,20,V,79,539.614999986719,accuracy,left,0.2,60,experimental,7627,0.2,0,79
0.461830000014976,180,0.2,20,V,30,2564.38999998523,accuracy,left,0.2,1,experimental,7627,0.2,0,30
0.559734999987762,0,0.2,20,V,74,864.694999996573,accuracy,right,0.2,2,experimental,7627,0.2,1,74
0.460689999978058,0,0.2,20,V,50,932.159999996424,accuracy,right,0.2,3,experimental,7627,0.2,1,50
0.451904999994673,0,0.2,20,V,91,1034.1999999946,accuracy,right,0.2,4,experimental,7627,0.2,0,91
0.433919999981299,180,0.2,20,V,71,3060.38000000967,accuracy,left,0.2,5,experimental,7627,0.2,1,71
0.836295000015292,180,0.2,20,V,59,710.350000008941,accuracy,left,0.2,6,experimental,7627,0.2,1,59
0.427280000003986,0,0.2,20,V,50,1411.07000000216,accuracy,right,0.2,7,experimental,7627,0.2,1,50
0.594344999990426,0,0.2,20,V,54,1156.74000000581,accuracy,right,0.2,8,experimental,7627,0.2,1,54
0.478389999974519,0,0.2,20,V,50,782.995000015944,accuracy,right,0.2,9,experimental,7627,0.2,0,50
0.424234999983571,180,0.2,20,V,50,615.020000026561,accuracy,left,0.2,10,experimental,7627,0.2,1,50
0.526315000024624,180,0.2,20,V,50,1284.29999999981,accuracy,left,0.2,11,experimental,7627,0.2,1,50
0.619435000000522,180,0.2,20,V,50,803.704999998678,accuracy,left,0.2,12,experimental,7627,0.2,0,50
0.462414999986999,0,0.2,20,V,1,1166.68500000378,accuracy,right,0.2,13,experimental,7627,0.2,1,1
0.49976000000583,0,0.2,20,V,61,885.015000007115,accuracy,right,0.2,14,experimental,7627,0.2,0,61
0.510780000011437,0,0.2,20,V,55,814.509999996517,accuracy,right,0.2,15,experimental,7627,0.2,1,55
0.577309999993071,0,0.2,20,V,58,849.690000002738,accuracy,right,0.2,16,experimental,7627,0.2,0,58
0.559914999990724,0,0.2,20,V,28,692.910000012722,accuracy,right,0.2,17,experimental,7627,0.2,1,28
0.717225000000559,180,0.2,20,V,74,1534.8349999981,accuracy,left,0.2,18,experimental,7627,0.2,0,74
0.555569999997038,180,0.2,20,V,57,934.970000002068,accuracy,left,0.2,19,experimental,7627,0.2,1,57
0.724119999998715,180,0.2,20,V,62,703.39999999851,accuracy,left,0.2,20,experimental,7627,0.2,1,62
0.700325000012293,180,0.2,20,V,71,1847.3550000051,accuracy,left,0.2,21,experimental,7627,0.2,0,71
0.361709999997634,180,0.2,20,V,61,718.259999994189,accuracy,left,0.2,22,experimental,7627,0.2,1,61
0.70188000000827,180,0.2,20,V,62,661.950000009034,accuracy,left,0.2,23,experimental,7627,0.2,0,62
0.476644999987446,0,0.2,20,V,66,639.214999973774,accuracy,right,0.2,24,experimental,7627,0.2,0,66
0.60404499998549,0,0.2,20,V,74,1053.60000001406,accuracy,right,0.2,25,experimental,7627,0.2,0,74
0.620824999990873,0,0.2,20,V,68,451.449999993667,accuracy,right,0.2,26,experimental,7627,0.2,1,68
0.479205000010785,0,0.2,20,V,68,499.290000007022,accuracy,right,0.2,27,experimental,7627,0.2,0,68
0.59020000000624,180,0.2,20,V,68,486.529999994673,accuracy,left,0.2,28,experimental,7627,0.2,1,68
0.505485000001732,0,0.2,20,V,67,607.785000000149,accuracy,right,0.2,29,experimental,7627,0.2,0,67
1.37017499998864,180,0.2,20,V,23,795.964999997523,accuracy,left,0.2,30,experimental,7627,0.2,0,23
0.714384999999311,180,0.2,20,V,73,930.579999985639,accuracy,left,0.2,31,experimental,7627,0.2,0,73
0.578895000013057,180,0.2,20,V,66,549.334999988787,accuracy,left,0.2,32,experimental,7627,0.2,1,66
0.475845000008121,0,0.2,20,V,78,462.739999988116,accuracy,right,0.2,33,experimental,7627,0.2,1,78
0.552165000000969,180,0.2,20,V,63,669.889999990351,accuracy,left,0.2,34,experimental,7627,0.2,1,63
1.15891999998735,180,0.2,20,V,59,646.734999987762,accuracy,left,0.2,35,experimental,7627,0.2,0,59
0.394330000010319,0,0.2,20,V,23,1887.35500001349,accuracy,right,0.2,36,experimental,7627,0.2,1,23
0.490839999984019,0,0.2,20,V,59,807.354999997187,accuracy,right,0.2,37,experimental,7627,0.2,0,59
0.498059999983758,0,0.2,20,V,71,458.574999996927,accuracy,right,0.2,38,experimental,7627,0.2,0,71
0.418749999982771,180,0.2,20,V,50,727.794999984559,accuracy,left,0.2,39,experimental,7627,0.2,1,50
0.568510000011884,180,0.2,20,V,50,646.124999999069,accuracy,left,0.2,40,experimental,7627,0.2,1,50
0.592425000010058,180,0.2,20,V,53,798.545000026934,accuracy,left,0.2,41,experimental,7627,0.2,0,53
0.514345000003465,180,0.2,20,V,71,653.569999995176,accuracy,left,0.2,42,experimental,7627,0.2,0,71
0.479930000001099,0,0.2,20,V,59,700.979999993928,accuracy,right,0.2,43,experimental,7627,0.2,1,59
1.36582000000635,180,0.2,20,V,64,954.170000011567,accuracy,left,0.2,44,experimental,7627,0.2,0,64
0.283049999998417,0,0.2,20,V,62,585.400000010617,accuracy,right,0.2,45,experimental,7627,0.2,0,62
0.529650000011083,0,0.2,20,V,54,605.359999986831,accuracy,right,0.2,46,experimental,7627,0.2,1,54
0.318999999988824,0,0.2,20,V,46,1457.3849999872,accuracy,right,0.2,47,experimental,7627,0.2,0,46
0.397490000003017,180,0.2,20,V,58,848.119999980554,accuracy,left,0.2,48,experimental,7627,0.2,0,58
0.498315000004601,0,0.2,20,V,67,651.550000009593,accuracy,right,0.2,49,experimental,7627,0.2,1,67
0.333920000004582,180,0.2,20,V,50,653.705000004265,accuracy,left,0.2,50,experimental,7627,0.2,1,50
0.341015000012703,0,0.2,20,V,82,1063.06499999482,accuracy,right,0.2,51,experimental,7627,0.2,1,82
0.254415000003297,0,0.2,20,V,54,735.704999999143,accuracy,right,0.2,52,experimental,7627,0.2,0,54
0.76431500000786,0,0.2,20,V,62,495.22999997111,accuracy,right,0.2,53,experimental,7627,0.2,0,62
0.544640000007581,180,0.2,20,V,68,700.864999991842,accuracy,left,0.2,54,experimental,7627,0.2,1,68
0.845869999990333,0,0.2,20,V,61,711.494999995921,accuracy,right,0.2,55,experimental,7627,0.2,0,61
0.439634999987669,180,0.2,20,V,60,677.759999991395,accuracy,left,0.2,56,experimental,7627,0.2,1,60
0.505264999985229,180,0.2,20,V,50,704.865000006743,accuracy,left,0.2,57,experimental,7627,0.2,1,50
0.653385000011884,180,0.2,20,V,50,1021.07999997679,accuracy,left,0.2,58,experimental,7627,0.2,0,50
0.515019999991171,180,0.2,20,V,1,958.73000001302,accuracy,left,0.2,59,experimental,7627,0.2,0,1
0.474560000002384,0,0.2,20,V,56,1878.92999997688,accuracy,right,0.2,60,experimental,7627,0.2,1,56
1.42777000000887,0,0.2,20,V,82,1131.19999997411,accuracy,right,0.2,1,experimental,7627,0.2,1,82
1.23266499998886,180,0.2,20,V,65,888.910000008997,accuracy,left,0.2,2,experimental,7627,0.2,0,65
1.2966549999835,0,0.2,20,V,39,967.069999984,accuracy,right,0.2,3,experimental,7627,0.2,0,39
0.947505000018049,180,0.2,20,V,67,1432.54499998875,accuracy,left,0.2,4,experimental,7627,0.2,0,67
0.814894999988377,0,0.2,20,V,69,878.85499998834,accuracy,right,0.2,5,experimental,7627,0.2,1,69
2.91232999999216,180,0.2,20,V,39,678.459999995772,accuracy,left,0.2,6,experimental,7627,0.2,1,39
0.693129999999423,0,0.2,20,V,65,489.405000000261,accuracy,right,0.2,7,experimental,7627,0.2,1,65
0.970570000004955,180,0.2,20,V,69,1126.58999999985,accuracy,left,0.2,8,experimental,7627,0.2,0,69
0.861769999988843,180,0.2,20,V,72,488.210000010673,accuracy,left,0.2,9,experimental,7627,0.2,0,72
0.978860000003129,180,0.2,20,V,64,486.750000011176,accuracy,left,0.2,10,experimental,7627,0.2,0,64
1.32601499999873,0,0.2,20,V,62,471.000000019558,accuracy,right,0.2,11,experimental,7627,0.2,0,62
3.00084500000207,0,0.2,20,V,80,1829.84500000067,accuracy,right,0.2,12,experimental,7627,0.2,1,80
0.862985000014305,180,0.2,20,V,71,838.86999997776,accuracy,left,0.2,13,experimental,7627,0.2,0,71
0.863060000003316,180,0.2,20,V,73,758.405000000726,accuracy,left,0.2,14,experimental,7627,0.2,0,73
0.774765000008978,180,0.2,20,V,64,2293.76000000024,accuracy,left,0.2,15,experimental,7627,0.2,1,64
0.700635000015609,0,0.2,20,V,71,492.850000009406,accuracy,right,0.2,16,experimental,7627,0.2,1,71
0.720879999978933,180,0.2,20,V,74,669.88000000082,accuracy,left,0.2,17,experimental,7627,0.2,0,74
1.22504499999899,180,0.2,20,V,79,726.985000015702,accuracy,left,0.2,18,experimental,7627,0.2,0,79
2.16259000002174,0,0.2,20,V,59,1309.73999999696,accuracy,right,0.2,19,experimental,7627,0.2,0,59
1.35774999999581,0,0.2,20,V,79,1174.26500000898,accuracy,right,0.2,20,experimental,7627,0.2,1,79
0.576635000004899,180,0.2,20,V,86,1187.27500000363,accuracy,left,0.2,21,experimental,7627,0.2,1,86
0.731425000005402,0,0.2,20,V,46,2061.17000000086,accuracy,right,0.2,22,experimental,7627,0.2,1,46
2.76364499999909,0,0.2,20,V,64,1157.14500000421,accuracy,right,0.2,23,experimental,7627,0.2,0,64
0.952979999972507,0,0.2,20,V,58,512.0400000019,accuracy,right,0.2,24,experimental,7627,0.2,0,58
1.07610000000615,180,0.2,20,V,68,735.290000011213,accuracy,left,0.2,25,experimental,7627,0.2,1,68
1.22419999999739,180,0.2,20,V,66,519.510000012815,accuracy,left,0.2,26,experimental,7627,0.2,0,66
1.04331999999704,0,0.2,20,V,27,536.609999981243,accuracy,right,0.2,27,experimental,7627,0.2,1,27
0.878775000019465,180,0.2,20,V,61,917.004999995697,accuracy,left,0.2,28,experimental,7627,0.2,1,61
0.964299999992363,0,0.2,20,V,90,868.565000011586,accuracy,right,0.2,29,experimental,7627,0.2,1,90
0.728954999999143,180,0.2,20,V,78,761.15000000596,accuracy,left,0.2,30,experimental,7627,0.2,1,78
0.838684999994934,0,0.2,20,V,76,1012.73000001628,accuracy,right,0.2,31,experimental,7627,0.2,1,76
0.912844999983907,0,0.2,20,V,84,785.820000018924,accuracy,right,0.2,32,experimental,7627,0.2,0,84
2.24485499999765,0,0.2,20,V,64,2585.06499999203,accuracy,right,0.2,33,experimental,7627,0.2,0,64
1.07077000002004,180,0.2,20,V,72,1046.94999998901,accuracy,left,0.2,34,experimental,7627,0.2,0,72
0.842839999997057,180,0.2,20,V,77,623.324999993201,accuracy,left,0.2,35,experimental,7627,0.2,0,77
1.3648700000192,0,0.2,20,V,86,2166.28000000492,accuracy,right,0.2,36,experimental,7627,0.2,0,86
0.698040000017267,0,0.2,20,V,89,815.310000005644,accuracy,right,0.2,37,experimental,7627,0.2,1,89
0.946129999996629,0,0.2,20,V,69,1014.90999999829,accuracy,right,0.2,38,experimental,7627,0.2,0,69
2.2079950000043,0,0.2,20,V,34,815.375000005588,accuracy,right,0.2,39,experimental,7627,0.2,0,34
1.60377499999572,0,0.2,20,V,56,1399.25999997649,accuracy,right,0.2,40,experimental,7627,0.2,1,56
0.916304999991786,180,0.2,20,V,66,525.965000007767,accuracy,left,0.2,41,experimental,7627,0.2,0,66
1.58199499998614,0,0.2,20,V,67,526.480000000447,accuracy,right,0.2,42,experimental,7627,0.2,1,67
0.879524999996647,180,0.2,20,V,62,799.389999999665,accuracy,left,0.2,43,experimental,7627,0.2,0,62
0.934459999989718,180,0.2,20,V,61,486.225000000559,accuracy,left,0.2,44,experimental,7627,0.2,0,61
1.78706000000238,0,0.2,20,V,85,1457.80999999307,accuracy,right,0.2,45,experimental,7627,0.2,0,85
0.783919999986887,180,0.2,20,V,63,505.009999993723,accuracy,left,0.2,46,experimental,7627,0.2,0,63
1.20115500001702,180,0.2,20,V,63,726.3649999802,accuracy,left,0.2,47,experimental,7627,0.2,0,63
0.822289999981876,180,0.2,20,V,80,1226.83500000881,accuracy,left,0.2,48,experimental,7627,0.2,0,80
0.77728500001831,0,0.2,20,V,68,709.94000000041,accuracy,right,0.2,49,experimental,7627,0.2,1,68
0.850749999983236,180,0.2,20,V,73,827.194999990519,accuracy,left,0.2,50,experimental,7627,0.2,0,73
0.852580000006128,180,0.2,20,V,0,4202.87499998836,accuracy,left,0.2,51,experimental,7627,0.2,0,0
0.625425000005867,180,0.2,20,V,67,590.389999997336,accuracy,left,0.2,52,experimental,7627,0.2,0,67
1.92232999997213,0,0.2,20,V,67,708.634999988135,accuracy,right,0.2,53,experimental,7627,0.2,1,67
1.48319499997888,0,0.2,20,V,73,668.9100000076,accuracy,right,0.2,54,experimental,7627,0.2,1,73
1.37712499999907,0,0.2,20,V,72,862.680000020191,accuracy,right,0.2,55,experimental,7627,0.2,0,72
0.658324999996927,180,0.2,20,V,74,899.974999978673,accuracy,left,0.2,56,experimental,7627,0.2,0,74
2.48330999998143,0,0.2,20,V,53,2497.72000001417,accuracy,right,0.2,57,experimental,7627,0.2,1,53
3.4514149999884,0,0.2,20,V,72,1228.2849999899,accuracy,right,0.2,58,experimental,7627,0.2,0,72
1.46712000001548,180,0.2,20,V,69,523.849999997765,accuracy,left,0.2,59,experimental,7627,0.2,0,69
2.7231749999919,180,0.2,20,V,74,752.279999985825,accuracy,left,0.2,60,experimental,7627,0.2,1,74
0.36811999999918,0,0.2,20,V,69,2486.75499999104,accuracy,right,0.2,1,experimental,7627,0.2,1,69
0.401450000004843,0,0.2,20,V,74,1159.65000001621,accuracy,right,0.2,2,experimental,7627,0.2,0,74
0.444870000006631,0,0.2,20,V,36,517.070000001695,accuracy,right,0.2,3,experimental,7627,0.2,0,36
0.294669999973848,180,0.2,20,V,67,1243.20999998599,accuracy,left,0.2,4,experimental,7627,0.2,1,67
0.39764999999851,180,0.2,20,V,40,640.015000011772,accuracy,left,0.2,5,experimental,7627,0.2,0,40
0.316859999991488,0,0.2,20,V,87,1141.88499998953,accuracy,right,0.2,6,experimental,7627,0.2,0,87
0.288085000007413,180,0.2,20,V,19,741.540000017267,accuracy,left,0.2,7,experimental,7627,0.2,1,19
0.39988000001153,180,0.2,20,V,0,1181.83499999531,accuracy,left,0.2,8,experimental,7627,0.2,0,0
0.361899999988731,180,0.2,20,V,76,574.229999998119,accuracy,left,0.2,9,experimental,7627,0.2,1,76
0.615640000003856,0,0.2,20,V,73,830.725000007078,accuracy,right,0.2,10,experimental,7627,0.2,1,73
0.249769999994896,0,0.2,20,V,30,596.209999988787,accuracy,right,0.2,11,experimental,7627,0.2,0,30
0.319484999985434,180,0.2,20,V,59,4745.64000000805,accuracy,left,0.2,12,experimental,7627,0.2,1,59
0.349565000011586,0,0.2,20,V,29,790.50500001153,accuracy,right,0.2,13,experimental,7627,0.2,0,29
0.321120000007562,0,0.2,20,V,75,923.265000019222,accuracy,right,0.2,14,experimental,7627,0.2,1,75
0.262764999992214,0,0.2,20,V,75,1954.04000001168,accuracy,right,0.2,15,experimental,7627,0.2,0,75
0.258145000000019,0,0.2,20,V,38,639.724999986589,accuracy,right,0.2,16,experimental,7627,0.2,0,38
0.353645000024699,180,0.2,20,V,68,795.314999995753,accuracy,left,0.2,17,experimental,7627,0.2,0,68
0.342479999992065,180,0.2,20,V,39,1182.05000000307,accuracy,left,0.2,18,experimental,7627,0.2,1,39
0.37737500001071,0,0.2,20,V,12,904.819999996107,accuracy,right,0.2,19,experimental,7627,0.2,1,12
0.401475000020582,180,0.2,20,V,78,1570.04500000086,accuracy,left,0.2,20,experimental,7627,0.2,1,78
0.294739999982994,180,0.2,20,V,28,622.750000009779,accuracy,left,0.2,21,experimental,7627,0.2,1,28
0.259525000001304,0,0.2,20,V,14,735.675000003539,accuracy,right,0.2,22,experimental,7627,0.2,0,14
0.264380000007804,180,0.2,20,V,68,555.574999976438,accuracy,left,0.2,23,experimental,7627,0.2,0,68
0.325104999996256,180,0.2,20,V,50,735.395000024699,accuracy,left,0.2,24,experimental,7627,0.2,1,50
0.342860000004526,0,0.2,20,V,16,1574.19499999378,accuracy,right,0.2,25,experimental,7627,0.2,1,16
0.307209999999031,0,0.2,20,V,60,607.365000003017,accuracy,right,0.2,26,experimental,7627,0.2,1,60
0.349079999985173,180,0.2,20,V,50,698.739999992773,accuracy,left,0.2,27,experimental,7627,0.2,1,50
0.359610000014305,180,0.2,20,V,34,932.429999986663,accuracy,left,0.2,28,experimental,7627,0.2,1,34
0.300294999993872,180,0.2,20,V,34,569.290000014007,accuracy,left,0.2,29,experimental,7627,0.2,1,34
0.343424999999348,0,0.2,20,V,45,659.515000007115,accuracy,right,0.2,30,experimental,7627,0.2,0,45
0.306965000024997,180,0.2,20,V,65,573.539999982808,accuracy,left,0.2,31,experimental,7627,0.2,0,65
0.276980000024196,0,0.2,20,V,46,550.294999993872,accuracy,right,0.2,32,experimental,7627,0.2,0,46
0.287895000016317,0,0.2,20,V,39,579.22499999404,accuracy,right,0.2,33,experimental,7627,0.2,0,39
0.328379999991506,180,0.2,20,V,74,655.345000006724,accuracy,left,0.2,34,experimental,7627,0.2,0,74
0.338414999976754,180,0.2,20,V,18,1472.47499998799,accuracy,left,0.2,35,experimental,7627,0.2,0,18
0.302370000019204,0,0.2,20,V,56,586.344999988563,accuracy,right,0.2,36,experimental,7627,0.2,0,56
0.366944999986794,0,0.2,20,V,40,886.724999989383,accuracy,right,0.2,37,experimental,7627,0.2,1,40
0.366420000005979,0,0.2,20,V,30,619.189999997616,accuracy,right,0.2,38,experimental,7627,0.2,0,30
0.203899999993388,0,0.2,20,V,31,986.274999974295,accuracy,right,0.2,39,experimental,7627,0.2,0,31
0.349340000014752,0,0.2,20,V,74,851.219999982044,accuracy,right,0.2,40,experimental,7627,0.2,1,74
0.247250000014901,0,0.2,20,V,39,585.284999979194,accuracy,right,0.2,41,experimental,7627,0.2,0,39
0.275740000011865,180,0.2,20,V,16,923.110000003129,accuracy,left,0.2,42,experimental,7627,0.2,1,16
0.284584999986924,0,0.2,20,V,61,478.234999987762,accuracy,right,0.2,43,experimental,7627,0.2,1,61
0.26238500000909,180,0.2,20,V,35,751.004999998026,accuracy,left,0.2,44,experimental,7627,0.2,1,35
0.32905999998888,180,0.2,20,V,0,659.890000009909,accuracy,left,0.2,45,experimental,7627,0.2,0,0
0.135364999994636,180,0.2,20,V,34,866.519999981392,accuracy,left,0.2,46,experimental,7627,0.2,0,34
0.295364999998361,180,0.2,20,V,69,781.219999975525,accuracy,left,0.2,47,experimental,7627,0.2,1,69
0.475830000010319,180,0.2,20,V,37,1405.46999999788,accuracy,left,0.2,48,experimental,7627,0.2,1,37
0.28781999999797,180,0.2,20,V,68,1110.61500001233,accuracy,left,0.2,49,experimental,7627,0.2,1,68
0.556515000004321,180,0.2,20,V,85,846.264999999665,accuracy,left,0.2,50,experimental,7627,0.2,0,85
0.330774999979883,0,0.2,20,V,72,639.360000000801,accuracy,right,0.2,51,experimental,7627,0.2,1,72
0.448940000001807,0,0.2,20,V,38,774.520000006538,accuracy,right,0.2,52,experimental,7627,0.2,0,38
0.485574999999255,180,0.2,20,V,61,491.810000006575,accuracy,left,0.2,53,experimental,7627,0.2,0,61
0.346110000012908,0,0.2,20,V,37,1161.18500000425,accuracy,right,0.2,54,experimental,7627,0.2,1,37
0.400324999995064,0,0.2,20,V,71,841.069999995176,accuracy,right,0.2,55,experimental,7627,0.2,1,71
0.427544999984093,0,0.2,20,V,79,607.434999983758,accuracy,right,0.2,56,experimental,7627,0.2,1,79
0.35504499997478,180,0.2,20,V,43,741.810000006575,accuracy,left,0.2,57,experimental,7627,0.2,1,43
0.358984999998473,180,0.2,20,V,69,584.020000009332,accuracy,left,0.2,58,experimental,7627,0.2,0,69
0.432399999991059,0,0.2,20,V,32,698.904999997467,accuracy,right,0.2,59,experimental,7627,0.2,1,32
0.31236000001058,180,0.2,20,V,76,1303.34000001336,accuracy,left,0.2,60,experimental,7627,0.2,0,76
2.53743999998551,0,0.2,20,V,76,1319.22000000533,accuracy,right,0.2,1,experimental,7627,0.2,1,76
0.69772999998508,0,0.2,20,V,76,694.294999993872,accuracy,right,0.2,2,experimental,7627,0.2,1,76
0.715045000019018,180,0.2,20,V,56,2297.22999999626,accuracy,left,0.2,3,experimental,7627,0.2,1,56
0.526944999990519,0,0.2,20,V,72,1032.03999999072,accuracy,right,0.2,4,experimental,7627,0.2,1,72
0.961190000001807,180,0.2,20,V,59,1336.02500002552,accuracy,left,0.2,5,experimental,7627,0.2,1,59
0.547155000007711,0,0.2,20,V,81,591.205000004265,accuracy,right,0.2,6,experimental,7627,0.2,1,81
0.646110000001267,180,0.2,20,V,37,678.14000000339,accuracy,left,0.2,7,experimental,7627,0.2,1,37
1.22086999999033,0,0.2,20,V,72,719.825000007637,accuracy,right,0.2,8,experimental,7627,0.2,1,72
0.825524999992922,180,0.2,20,V,82,1143.69500000589,accuracy,left,0.2,9,experimental,7627,0.2,1,82
1.35324999998556,180,0.2,20,V,31,689.365000027698,accuracy,left,0.2,10,experimental,7627,0.2,1,31
0.720840000024065,0,0.2,20,V,50,1740.42000001622,accuracy,right,0.2,11,experimental,7627,0.2,0,50
1.81909999999357,180,0.2,20,V,62,718.110000016168,accuracy,left,0.2,12,experimental,7627,0.2,1,62
0.601239999989048,180,0.2,20,V,64,784.335000003688,accuracy,left,0.2,13,experimental,7627,0.2,1,64
0.69283000001451,0,0.2,20,V,31,695.340000005439,accuracy,right,0.2,14,experimental,7627,0.2,1,31
0.71661499998346,0,0.2,20,V,77,589.719999989029,accuracy,right,0.2,15,experimental,7627,0.2,1,77
0.663969999994151,180,0.2,20,V,57,974.305000010412,accuracy,left,0.2,16,experimental,7627,0.2,1,57
1.26507000002265,0,0.2,20,V,80,545.075000001583,accuracy,right,0.2,17,experimental,7627,0.2,1,80
0.814350000000559,180,0.2,20,V,56,1212.06000002008,accuracy,left,0.2,18,experimental,7627,0.2,1,56
0.707589999976568,180,0.2,20,V,71,1301.57999999961,accuracy,left,0.2,19,experimental,7627,0.2,1,71
2.36550000001444,0,0.2,20,V,83,707.634999998845,accuracy,right,0.2,20,experimental,7627,0.2,1,83
0.555255000013858,180,0.2,20,V,67,958.814999991097,accuracy,left,0.2,21,experimental,7627,0.2,1,67
0.869290000002831,180,0.2,20,V,31,644.140000018291,accuracy,left,0.2,22,experimental,7627,0.2,1,31
2.12193999998271,0,0.2,20,V,79,701.650000003166,accuracy,right,0.2,23,experimental,7627,0.2,1,79
0.578740000026301,0,0.2,20,V,65,642.200000002049,accuracy,right,0.2,24,experimental,7627,0.2,0,65
0.988445000024512,180,0.2,20,V,66,615.454999992158,accuracy,left,0.2,25,experimental,7627,0.2,1,66
2.33892000000924,180,0.2,20,V,67,573.754999990575,accuracy,left,0.2,26,experimental,7627,0.2,1,67
0.818434999993537,0,0.2,20,V,30,429.065000003669,accuracy,right,0.2,27,experimental,7627,0.2,1,30
0.700734999991488,180,0.2,20,V,71,682.254999992438,accuracy,left,0.2,28,experimental,7627,0.2,1,71
0.644970000023022,0,0.2,20,V,43,637.485000013374,accuracy,right,0.2,29,experimental,7627,0.2,0,43
0.985480000002775,0,0.2,20,V,78,740.775000012945,accuracy,right,0.2,30,experimental,7627,0.2,1,78
0.97708000001125,0,0.2,20,V,67,565.039999986999,accuracy,right,0.2,31,experimental,7627,0.2,1,67
0.81992500001844,180,0.2,20,V,72,586.595000000671,accuracy,left,0.2,32,experimental,7627,0.2,1,72
1.09742000000551,180,0.2,20,V,30,767.550000018906,accuracy,left,0.2,33,experimental,7627,0.2,0,30
0.868405000015628,0,0.2,20,V,65,630.340000003576,accuracy,right,0.2,34,experimental,7627,0.2,1,65
2.02547500000242,0,0.2,20,V,70,643.305000004824,accuracy,right,0.2,35,experimental,7627,0.2,1,70
0.506534999993164,180,0.2,20,V,78,674.38000001153,accuracy,left,0.2,36,experimental,7627,0.2,1,78
0.753170000010636,180,0.2,20,V,59,552.215000003111,accuracy,left,0.2,37,experimental,7627,0.2,1,59
1.53020500001777,180,0.2,20,V,52,1453.26499998942,accuracy,left,0.2,38,experimental,7627,0.2,0,52
1.12169500000868,0,0.2,20,V,59,917.019999993499,accuracy,right,0.2,39,experimental,7627,0.2,1,59
1.81896500001336,0,0.2,20,V,70,933.690000005532,accuracy,right,0.2,40,experimental,7627,0.2,1,70
0.990984999982174,180,0.2,20,V,64,765.049999987241,accuracy,left,0.2,41,experimental,7627,0.2,1,64
2.68056499998737,0,0.2,20,V,73,804.17999997735,accuracy,right,0.2,42,experimental,7627,0.2,1,73
2.36536500000535,0,0.2,20,V,81,750.205000018235,accuracy,right,0.2,43,experimental,7627,0.2,1,81
1.32507500000019,0,0.2,20,V,79,720.874999999069,accuracy,right,0.2,44,experimental,7627,0.2,1,79
0.58019000000786,0,0.2,20,V,66,874.264999991283,accuracy,right,0.2,45,experimental,7627,0.2,1,66
0.604420000017621,180,0.2,20,V,67,654.799999989569,accuracy,left,0.2,46,experimental,7627,0.2,1,67
0.486790000024717,180,0.2,20,V,50,974.664999986999,accuracy,left,0.2,47,experimental,7627,0.2,1,50
1.05075000002421,180,0.2,20,V,69,766.910000005737,accuracy,left,0.2,48,experimental,7627,0.2,0,69
0.897139999986626,0,0.2,20,V,78,589.269999996759,accuracy,right,0.2,49,experimental,7627,0.2,0,78
1.45432499999832,180,0.2,20,V,29,2095.24999998417,accuracy,left,0.2,50,experimental,7627,0.2,1,29
0.704490000003483,180,0.2,20,V,66,479.21999997925,accuracy,left,0.2,51,experimental,7627,0.2,1,66
1.09322999999858,0,0.2,20,V,73,610.499999980442,accuracy,right,0.2,52,experimental,7627,0.2,1,73
1.54316500000982,0,0.2,20,V,83,583.144999982323,accuracy,right,0.2,53,experimental,7627,0.2,0,83
0.847049999982119,180,0.2,20,V,31,632.260000013281,accuracy,left,0.2,54,experimental,7627,0.2,1,31
1.70222000000672,0,0.2,20,V,66,630.410000012722,accuracy,right,0.2,55,experimental,7627,0.2,0,66
0.737759999989532,180,0.2,20,V,82,478.299999987707,accuracy,left,0.2,56,experimental,7627,0.2,1,82
0.821854999987409,0,0.2,20,V,44,719.979999994393,accuracy,right,0.2,57,experimental,7627,0.2,1,44
0.686020000022836,180,0.2,20,V,78,544.374999997672,accuracy,left,0.2,58,experimental,7627,0.2,1,78
0.749290000006557,180,0.2,20,V,50,2361.90499999793,accuracy,left,0.2,59,experimental,7627,0.2,1,50
0.745984999986831,0,0.2,20,V,61,703.615000005811,accuracy,right,0.2,60,experimental,7627,0.2,1,61
0.491899999993388,0,0.2,20,V,57,1021.87500000559,accuracy,right,0.2,1,experimental,7627,0.2,1,57
0.573420000000391,0,0.2,20,V,40,1538.87500002747,accuracy,right,0.2,2,experimental,7627,0.2,1,40
0.50560500001302,0,0.2,20,V,22,1363.74000000069,accuracy,right,0.2,3,experimental,7627,0.2,1,22
0.798799999989569,0,0.2,20,V,64,636.090000014752,accuracy,right,0.2,4,experimental,7627,0.2,0,64
0.456470000004861,180,0.2,20,V,50,694.690000004135,accuracy,left,0.2,5,experimental,7627,0.2,1,50
0.582815000001807,180,0.2,20,V,62,943.8300000038,accuracy,left,0.2,6,experimental,7627,0.2,1,62
0.410460000013933,180,0.2,20,V,69,686.740000004414,accuracy,left,0.2,7,experimental,7627,0.2,0,69
0.720660000020638,180,0.2,20,V,31,759.214999997988,accuracy,left,0.2,8,experimental,7627,0.2,0,31
0.597840000002645,0,0.2,20,V,64,511.030000023544,accuracy,right,0.2,9,experimental,7627,0.2,1,64
0.504229999991134,180,0.2,20,V,65,724.584999989253,accuracy,left,0.2,10,experimental,7627,0.2,1,65
1.61100999999326,0,0.2,20,V,35,938.215000001714,accuracy,right,0.2,11,experimental,7627,0.2,1,35
0.295769999996759,180,0.2,20,V,67,681.030000007246,accuracy,left,0.2,12,experimental,7627,0.2,1,67
0.544465000013355,180,0.2,20,V,50,2039.31500000181,accuracy,left,0.2,13,experimental,7627,0.2,1,50
0.52265499997884,180,0.2,20,V,47,797.995000000577,accuracy,left,0.2,14,experimental,7627,0.2,0,47
0.498549999989569,0,0.2,20,V,50,688.04999999702,accuracy,right,0.2,15,experimental,7627,0.2,0,50
0.344589999993332,180,0.2,20,V,50,645.095000014175,accuracy,left,0.2,16,experimental,7627,0.2,0,50
1.01148499999521,0,0.2,20,V,50,944.510000001173,accuracy,right,0.2,17,experimental,7627,0.2,0,50
0.726339999993332,180,0.2,20,V,50,749.519999983255,accuracy,left,0.2,18,experimental,7627,0.2,0,50
0.8063799999943,0,0.2,20,V,50,765.58999999566,accuracy,right,0.2,19,experimental,7627,0.2,0,50
0.818259999999776,180,0.2,20,V,50,1030.19499999937,accuracy,left,0.2,20,experimental,7627,0.2,0,50
0.557035000005737,0,0.2,20,V,50,776.234999997541,accuracy,right,0.2,21,experimental,7627,0.2,0,50
0.816024999978486,0,0.2,20,V,50,675.675000005402,accuracy,right,0.2,22,experimental,7627,0.2,0,50
0.449935000011697,180,0.2,20,V,50,758.230000006966,accuracy,left,0.2,23,experimental,7627,0.2,1,50
0.330965000001248,0,0.2,20,V,30,1455.32999999728,accuracy,right,0.2,24,experimental,7627,0.2,1,30
0.427224999992177,180,0.2,20,V,71,712.404999998398,accuracy,left,0.2,25,experimental,7627,0.2,1,71
0.439389999984764,180,0.2,20,V,57,659.51500000665,accuracy,left,0.2,26,experimental,7627,0.2,1,57
0.525484999991022,0,0.2,20,V,64,1410.57499998715,accuracy,right,0.2,27,experimental,7627,0.2,0,64
0.618084999994375,180,0.2,20,V,66,783.290000020992,accuracy,left,0.2,28,experimental,7627,0.2,0,66
0.519679999997374,180,0.2,20,V,70,695.000000006985,accuracy,left,0.2,29,experimental,7627,0.2,1,70
0.434410000016447,0,0.2,20,V,50,950.299999996554,accuracy,right,0.2,30,experimental,7627,0.2,0,50
0.510689999995753,180,0.2,20,V,55,2036.24499999592,accuracy,left,0.2,31,experimental,7627,0.2,1,55
0.53727000000095,0,0.2,20,V,72,793.545000022277,accuracy,right,0.2,32,experimental,7627,0.2,0,72
1.08561499998905,0,0.2,20,V,64,790.200000017881,accuracy,right,0.2,33,experimental,7627,0.2,0,64
0.52890999999363,0,0.2,20,V,64,477.985000004992,accuracy,right,0.2,34,experimental,7627,0.2,0,64
0.671780000004452,180,0.2,20,V,65,646.735000016633,accuracy,left,0.2,35,experimental,7627,0.2,0,65
0.588900000002235,0,0.2,20,V,65,533.804999984335,accuracy,right,0.2,36,experimental,7627,0.2,0,65
0.466049999988638,0,0.2,20,V,62,473.919999989681,accuracy,right,0.2,37,experimental,7627,0.2,0,62
0.624494999996386,0,0.2,20,V,73,709.07000001194,accuracy,right,0.2,38,experimental,7627,0.2,0,73
0.609745000023395,0,0.2,20,V,61,1004.37499998929,accuracy,right,0.2,39,experimental,7627,0.2,1,61
0.510520000010729,180,0.2,20,V,67,765.820000000764,accuracy,left,0.2,40,experimental,7627,0.2,0,67
0.45054499999946,180,0.2,20,V,88,972.295000014361,accuracy,left,0.2,41,experimental,7627,0.2,1,88
1.0170999999973,180,0.2,20,V,55,529.385000001639,accuracy,left,0.2,42,experimental,7627,0.2,0,55
0.54987499999674,0,0.2,20,V,78,654.650000011083,accuracy,right,0.2,43,experimental,7627,0.2,0,78
2.78424999999674,180,0.2,20,V,50,1112.58499999531,accuracy,left,0.2,44,experimental,7627,0.2,0,50
0.322289999982342,180,0.2,20,V,50,668.105000018608,accuracy,left,0.2,45,experimental,7627,0.2,1,50
0.301050000009127,0,0.2,20,V,61,498.430000007153,accuracy,right,0.2,46,experimental,7627,0.2,1,61
0.300504999991506,180,0.2,20,V,61,631.310000026599,accuracy,left,0.2,47,experimental,7627,0.2,1,61
0.369709999999031,0,0.2,20,V,55,667.729999986477,accuracy,right,0.2,48,experimental,7627,0.2,0,55
0.27223000000231,180,0.2,20,V,50,692.780000012368,accuracy,left,0.2,49,experimental,7627,0.2,0,50
0.235660000005737,180,0.2,20,V,73,885.94499998726,accuracy,left,0.2,50,experimental,7627,0.2,1,73
0.222134999989066,0,0.2,20,V,24,1462.80999999726,accuracy,right,0.2,51,experimental,7627,0.2,1,24
0.409734999993816,0,0.2,20,V,60,623.255000013392,accuracy,right,0.2,52,experimental,7627,0.2,0,60
0.463370000012219,180,0.2,20,V,62,717.78500001505,accuracy,left,0.2,53,experimental,7627,0.2,1,62
0.429174999997951,180,0.2,20,V,71,718.854999984615,accuracy,left,0.2,54,experimental,7627,0.2,1,71
0.307715000002645,0,0.2,20,V,57,739.620000007562,accuracy,right,0.2,55,experimental,7627,0.2,1,57
0.451499999995343,0,0.2,20,V,61,684.810000006109,accuracy,right,0.2,56,experimental,7627,0.2,0,61
0.574890000017826,180,0.2,20,V,88,662.664999981411,accuracy,left,0.2,57,experimental,7627,0.2,1,88
0.746749999991152,0,0.2,20,V,68,444.820000004489,accuracy,right,0.2,58,experimental,7627,0.2,0,68
0.404914999991655,0,0.2,20,V,30,913.67500001844,accuracy,right,0.2,59,experimental,7627,0.2,1,30
0.428064999985509,180,0.2,20,V,75,882.715000013821,accuracy,left,0.2,60,experimental,7627,0.2,1,75
1.20768500000099,180,0.2,20,V,81,1167.68000001367,accuracy,left,0.2,1,experimental,7627,0.2,1,81
0.702640000002924,0,0.2,20,V,75,736.015000002459,accuracy,right,0.2,2,experimental,7627,0.2,1,75
0.786475000000559,0,0.2,20,V,88,504.039999999572,accuracy,right,0.2,3,experimental,7627,0.2,1,88
0.72343000001274,0,0.2,20,V,87,690.995000012219,accuracy,right,0.2,4,experimental,7627,0.2,1,87
0.868049999989569,0,0.2,20,V,78,518.674999999814,accuracy,right,0.2,5,experimental,7627,0.2,1,78
0.76384499997925,180,0.2,20,V,61,1063.95999999903,accuracy,left,0.2,6,experimental,7627,0.2,1,61
0.735145000013523,180,0.2,20,V,79,726.350000011735,accuracy,left,0.2,7,experimental,7627,0.2,0,79
2.71350499999244,0,0.2,20,V,34,1452.7200000016,accuracy,right,0.2,8,experimental,7627,0.2,0,34
0.69714499998372,180,0.2,20,V,68,1166.7899999884,accuracy,left,0.2,9,experimental,7627,0.2,0,68
1.06115999998292,180,0.2,20,V,77,669.720000005327,accuracy,left,0.2,10,experimental,7627,0.2,1,77
0.58484499997599,180,0.2,20,V,69,746.209999982733,accuracy,left,0.2,11,experimental,7627,0.2,0,69
1.17831499999762,0,0.2,20,V,91,939.489999989979,accuracy,right,0.2,12,experimental,7627,0.2,0,91
0.91279499998223,180,0.2,20,V,74,800.160000013188,accuracy,left,0.2,13,experimental,7627,0.2,0,74
0.744949999993201,180,0.2,20,V,50,1296.43499999633,accuracy,left,0.2,14,experimental,7627,0.2,1,50
1.50848499999847,180,0.2,20,V,76,702.569999994244,accuracy,left,0.2,15,experimental,7627,0.2,0,76
1.63221000001067,180,0.2,20,V,77,728.155000018887,accuracy,left,0.2,16,experimental,7627,0.2,0,77
2.13126500000386,0,0.2,20,V,72,2254.02999998163,accuracy,right,0.2,17,experimental,7627,0.2,0,72
1.37154499997292,0,0.2,20,V,73,875.710000021849,accuracy,right,0.2,18,experimental,7627,0.2,0,73
1.22718999997573,0,0.2,20,V,74,687.760000000708,accuracy,right,0.2,19,experimental,7627,0.2,0,74
0.736124999995809,180,0.2,20,V,83,1199.9899999937,accuracy,left,0.2,20,experimental,7627,0.2,0,83
1.39208499999903,180,0.2,20,V,68,809.639999992214,accuracy,left,0.2,21,experimental,7627,0.2,0,68
3.24834000001987,0,0.2,20,V,74,859.925000026356,accuracy,right,0.2,22,experimental,7627,0.2,1,74
1.31208000000287,0,0.2,20,V,76,902.614999999292,accuracy,right,0.2,23,experimental,7627,0.2,0,76
0.924320000019856,0,0.2,20,V,83,678.420000011101,accuracy,right,0.2,24,experimental,7627,0.2,1,83
1.5075800000052,180,0.2,20,V,71,715.085000003688,accuracy,left,0.2,25,experimental,7627,0.2,1,71
0.722840000002179,0,0.2,20,V,73,651.024999998976,accuracy,right,0.2,26,experimental,7627,0.2,1,73
2.75224499998149,180,0.2,20,V,73,912.184999993537,accuracy,left,0.2,27,experimental,7627,0.2,0,73
1.80505500000436,180,0.2,20,V,77,734.670000005513,accuracy,left,0.2,28,experimental,7627,0.2,1,77
1.5643800000255,0,0.2,20,V,75,542.069999995641,accuracy,right,0.2,29,experimental,7627,0.2,1,75
1.42370499999402,0,0.2,20,V,81,906.365000002086,accuracy,right,0.2,30,experimental,7627,0.2,1,81
2.17257500000391,180,0.2,20,V,79,1112.65500000492,accuracy,left,0.2,31,experimental,7627,0.2,0,79
3.23807499997225,180,0.2,20,V,82,1281.06000000844,accuracy,left,0.2,32,experimental,7627,0.2,1,82
1.51362000001268,0,0.2,20,V,79,1853.17000001669,accuracy,right,0.2,33,experimental,7627,0.2,1,79
1.55090000000177,0,0.2,20,V,81,795.624999998603,accuracy,right,0.2,34,experimental,7627,0.2,0,81
1.81257499998901,0,0.2,20,V,55,1971.30500001367,accuracy,right,0.2,35,experimental,7627,0.2,0,55
1.31178000001796,180,0.2,20,V,74,956.044999998994,accuracy,left,0.2,36,experimental,7627,0.2,0,74
2.23323000001255,180,0.2,20,V,42,1229.79499999247,accuracy,left,0.2,37,experimental,7627,0.2,1,42
1.79675000000838,0,0.2,20,V,75,777.804999990854,accuracy,right,0.2,38,experimental,7627,0.2,1,75
1.43036999998754,0,0.2,20,V,71,695.17999998061,accuracy,right,0.2,39,experimental,7627,0.2,0,71
0.813330000004731,180,0.2,20,V,68,789.255000010133,accuracy,left,0.2,40,experimental,7627,0.2,0,68
2.23522999999113,180,0.2,20,V,78,766.650000005029,accuracy,left,0.2,41,experimental,7627,0.2,0,78
1.92376999999397,180,0.2,20,V,80,775.474999972619,accuracy,left,0.2,42,experimental,7627,0.2,1,80
1.90679500001715,0,0.2,20,V,76,759.905000013299,accuracy,right,0.2,43,experimental,7627,0.2,0,76
1.59557500001416,180,0.2,20,V,66,1333.95000000019,accuracy,left,0.2,44,experimental,7627,0.2,0,66
2.4989200000125,180,0.2,20,V,87,2957.94999998203,accuracy,left,0.2,45,experimental,7627,0.2,1,87
4.1573000000203,0,0.2,20,V,73,858.264999988489,accuracy,right,0.2,46,experimental,7627,0.2,0,73
2.81913499999791,0,0.2,20,V,43,949.084999971092,accuracy,right,0.2,47,experimental,7627,0.2,1,43
0.938540000002831,0,0.2,20,V,65,1601.379999978,accuracy,right,0.2,48,experimental,7627,0.2,0,65
0.950864999991842,0,0.2,20,V,87,2339.29999999236,accuracy,right,0.2,49,experimental,7627,0.2,0,87
1.89473499997985,0,0.2,20,V,73,582.675000011921,accuracy,right,0.2,50,experimental,7627,0.2,0,73
4.04628999999864,180,0.2,20,V,50,1568.73499997891,accuracy,left,0.2,51,experimental,7627,0.2,0,50
2.21780000001332,0,0.2,20,V,80,839.360000012442,accuracy,right,0.2,52,experimental,7627,0.2,1,80
1.68495999998413,0,0.2,20,V,68,935.209999995772,accuracy,right,0.2,53,experimental,7627,0.2,0,68
0.846495000005234,180,0.2,20,V,77,839.110000001267,accuracy,left,0.2,54,experimental,7627,0.2,0,77
2.1636450000219,180,0.2,20,V,72,1180.46500001242,accuracy,left,0.2,55,experimental,7627,0.2,1,72
2.04031999999983,180,0.2,20,V,60,2952.69999999413,accuracy,left,0.2,56,experimental,7627,0.2,0,60
1.27647499999125,180,0.2,20,V,84,1535.35999997985,accuracy,left,0.2,57,experimental,7627,0.2,0,84
2.29426500000386,0,0.2,20,V,76,875.845000001602,accuracy,right,0.2,58,experimental,7627,0.2,0,76
2.63337000002526,180,0.2,20,V,77,1264.38999999687,accuracy,left,0.2,59,experimental,7627,0.2,0,77
2.46245500000101,0,0.2,20,V,70,765.144999982789,accuracy,right,0.2,60,experimental,7627,0.2,1,70
0.392269999981858,0,0.2,20,V,76,1071.9899999965,accuracy,right,0.2,1,experimental,7627,0.2,1,76
0.416820000013337,180,0.2,20,V,82,862.375000026077,accuracy,left,0.2,2,experimental,7627,0.2,1,82
0.510704999992624,0,0.2,20,V,76,536.170000006445,accuracy,right,0.2,3,experimental,7627,0.2,1,76
0.397729999996722,180,0.2,20,V,100,730.784999992698,accuracy,left,0.2,4,experimental,7627,0.2,1,100
0.337624999985099,0,0.2,20,V,80,766.025000018999,accuracy,right,0.2,5,experimental,7627,0.2,1,80
0.423639999994077,180,0.2,20,V,87,678.444999997504,accuracy,left,0.2,6,experimental,7627,0.2,1,87
0.51548000000231,0,0.2,20,V,77,638.329999987036,accuracy,right,0.2,7,experimental,7627,0.2,1,77
0.319909999990836,180,0.2,20,V,87,705.849999998696,accuracy,left,0.2,8,experimental,7627,0.2,1,87
0.39551000000257,180,0.2,20,V,88,687.42500001099,accuracy,left,0.2,9,experimental,7627,0.2,0,88
0.545384999975562,0,0.2,20,V,45,1081.24999998789,accuracy,right,0.2,10,experimental,7627,0.2,1,45
0.310844999999739,0,0.2,20,V,82,799.305000022985,accuracy,right,0.2,11,experimental,7627,0.2,1,82
0.48237500002142,180,0.2,20,V,80,851.110000017099,accuracy,left,0.2,12,experimental,7627,0.2,0,80
0.494394999987446,180,0.2,20,V,81,1251.88999998569,accuracy,left,0.2,13,experimental,7627,0.2,1,81
0.313750000000931,0,0.2,20,V,85,673.299999994226,accuracy,right,0.2,14,experimental,7627,0.2,1,85
0.385045000002719,0,0.2,20,V,91,1038.50999998394,accuracy,right,0.2,15,experimental,7627,0.2,0,91
0.533454999997281,180,0.2,20,V,77,832.224999990314,accuracy,left,0.2,16,experimental,7627,0.2,0,77
0.333169999998063,180,0.2,20,V,81,1152.24500000477,accuracy,left,0.2,17,experimental,7627,0.2,1,81
0.391115000005811,180,0.2,20,V,83,895.194999990053,accuracy,left,0.2,18,experimental,7627,0.2,0,83
0.294155000010505,0,0.2,20,V,82,664.729999989271,accuracy,right,0.2,19,experimental,7627,0.2,0,82
0.354280000000261,0,0.2,20,V,60,1500.49000000581,accuracy,right,0.2,20,experimental,7627,0.2,1,60
0.470100000006147,0,0.2,20,V,10,1205.77999998908,accuracy,right,0.2,21,experimental,7627,0.2,1,10
0.413669999979436,180,0.2,20,V,78,713.530000007711,accuracy,left,0.2,22,experimental,7627,0.2,0,78
0.985225000011735,180,0.2,20,V,80,1095.42499997839,accuracy,left,0.2,23,experimental,7627,0.2,0,80
0.562615000002086,0,0.2,20,V,59,821.51999999769,accuracy,right,0.2,24,experimental,7627,0.2,1,59
0.532765000009909,180,0.2,20,V,67,614.705000014976,accuracy,left,0.2,25,experimental,7627,0.2,1,67
0.404244999983348,180,0.2,20,V,81,1846.45000001136,accuracy,left,0.2,26,experimental,7627,0.2,0,81
0.364654999983497,0,0.2,20,V,33,941.525000002235,accuracy,right,0.2,27,experimental,7627,0.2,0,33
0.212729999999516,180,0.2,20,V,73,742.575000010431,accuracy,left,0.2,28,experimental,7627,0.2,0,73
0.656089999974705,0,0.2,20,V,78,504.205000005662,accuracy,right,0.2,29,experimental,7627,0.2,1,78
1.92519999999739,0,0.2,20,V,82,555.469999992289,accuracy,right,0.2,30,experimental,7627,0.2,1,82
0.268024999997579,180,0.2,20,V,43,1365.6800000174,accuracy,left,0.2,31,experimental,7627,0.2,1,43
0.636029999993742,180,0.2,20,V,58,582.959999999963,accuracy,left,0.2,32,experimental,7627,0.2,0,58
0.697325000015087,0,0.2,20,V,41,1535.22499999963,accuracy,right,0.2,33,experimental,7627,0.2,1,41
0.332514999986626,0,0.2,20,V,67,632.024999999441,accuracy,right,0.2,34,experimental,7627,0.2,1,67
0.293719999987632,180,0.2,20,V,50,535.085000011139,accuracy,left,0.2,35,experimental,7627,0.2,1,50
0.182369999994524,0,0.2,20,V,50,640.339999984019,accuracy,right,0.2,36,experimental,7627,0.2,1,50
0.238554999988526,180,0.2,20,V,46,1481.22000001557,accuracy,left,0.2,37,experimental,7627,0.2,1,46
0.268394999991171,0,0.2,20,V,50,804.264999983832,accuracy,right,0.2,38,experimental,7627,0.2,1,50
0.257734999991953,0,0.2,20,V,50,515.099999990314,accuracy,right,0.2,39,experimental,7627,0.2,1,50
0.0697050000019371,180,0.2,20,V,50,663.505000004545,accuracy,left,0.2,40,experimental,7627,0.2,1,50
0.263040000019595,0,0.2,20,V,43,944.069999997504,accuracy,right,0.2,41,experimental,7627,0.2,0,43
0.258655000012368,180,0.2,20,V,66,731.064999999478,accuracy,left,0.2,42,experimental,7627,0.2,0,66
0.230225000007078,0,0.2,20,V,46,790.210000006482,accuracy,right,0.2,43,experimental,7627,0.2,0,46
0.220484999998473,0,0.2,20,V,50,1604.53000001144,accuracy,right,0.2,44,experimental,7627,0.2,1,50
0.230264999991283,180,0.2,20,V,54,1442.52500001993,accuracy,left,0.2,45,experimental,7627,0.2,0,54
0.124649999982677,0,0.2,20,V,53,847.979999992065,accuracy,right,0.2,46,experimental,7627,0.2,1,53
0.22218499999214,180,0.2,20,V,55,752.649999980815,accuracy,left,0.2,47,experimental,7627,0.2,1,55
0.26445000001695,180,0.2,20,V,61,755.150000011548,accuracy,left,0.2,48,experimental,7627,0.2,1,61
0.11535999999661,180,0.2,20,V,50,891.850000014529,accuracy,left,0.2,49,experimental,7627,0.2,0,50
0.171594999992289,180,0.2,20,V,50,720.830000005662,accuracy,left,0.2,50,experimental,7627,0.2,0,50
0.334774999995716,180,0.2,20,V,50,873.870000010356,accuracy,left,0.2,51,experimental,7627,0.2,1,50
0.165494999993592,180,0.2,20,V,50,853.294999978505,accuracy,left,0.2,52,experimental,7627,0.2,0,50
0.236254999996163,0,0.2,20,V,59,1854.42000001762,accuracy,right,0.2,53,experimental,7627,0.2,0,59
0.747310000006109,0,0.2,20,V,81,1326.17499999516,accuracy,right,0.2,54,experimental,7627,0.2,1,81
0.264659999986179,180,0.2,20,V,50,1063.64000000805,accuracy,left,0.2,55,experimental,7627,0.2,1,50
0.236114999977872,0,0.2,20,V,60,568.650000001304,accuracy,right,0.2,56,experimental,7627,0.2,1,60
0.00351499998942018,180,0.2,20,V,55,1894.00500001013,accuracy,left,0.2,57,experimental,7627,0.2,0,55
0.285659999994561,0,0.2,20,V,50,798.515000001527,accuracy,right,0.2,58,experimental,7627,0.2,0,50
0.314400000003166,0,0.2,20,V,72,1260.52499999013,accuracy,right,0.2,59,experimental,7627,0.2,1,72
0.382020000019111,0,0.2,20,V,69,1909.4099999927,accuracy,right,0.2,60,experimental,7627,0.2,0,69
0.817395000020042,180,0.2,20,V,81,1115.98999999184,accuracy,left,0.2,1,experimental,7627,0.2,1,81
0.705155000003055,0,0.2,20,V,83,885.505000011995,accuracy,right,0.2,2,experimental,7627,0.2,1,83
0.559794999979436,180,0.2,20,V,92,649.769999989308,accuracy,left,0.2,3,experimental,7627,0.2,1,92
0.991734999988228,0,0.2,20,V,41,1148.61499998439,accuracy,right,0.2,4,experimental,7627,0.2,1,41
1.37936999998055,180,0.2,20,V,80,1886.21000002604,accuracy,left,0.2,5,experimental,7627,0.2,0,80
0.585729999991134,0,0.2,20,V,77,956.230000010692,accuracy,right,0.2,6,experimental,7627,0.2,0,77
0.918544999993406,180,0.2,20,V,84,1039.97499999311,accuracy,left,0.2,7,experimental,7627,0.2,0,84
0.646370000001974,0,0.2,20,V,97,771.099999982864,accuracy,right,0.2,8,experimental,7627,0.2,0,97
1.25224000000115,0,0.2,20,V,69,800.764999993145,accuracy,right,0.2,9,experimental,7627,0.2,1,69
0.607954999985173,180,0.2,20,V,87,707.070000004023,accuracy,left,0.2,10,experimental,7627,0.2,1,87
0.991734999989159,180,0.2,20,V,73,1152.01499999873,accuracy,left,0.2,11,experimental,7627,0.2,1,73
1.12892499999702,0,0.2,20,V,91,693.980000010692,accuracy,right,0.2,12,experimental,7627,0.2,0,91
0.781919999979436,0,0.2,20,V,92,626.445000001229,accuracy,right,0.2,13,experimental,7627,0.2,0,92
1.71181000000797,0,0.2,20,V,50,1101.44500000775,accuracy,right,0.2,14,experimental,7627,0.2,1,50
2.67664999997895,180,0.2,20,V,50,927.000000025146,accuracy,left,0.2,15,experimental,7627,0.2,1,50
1.03473000001349,180,0.2,20,V,62,738.340000011027,accuracy,left,0.2,16,experimental,7627,0.2,0,62
1.00029000002611,0,0.2,20,V,66,1215.93000000529,accuracy,right,0.2,17,experimental,7627,0.2,1,66
1.15955499999132,180,0.2,20,V,53,1087.68500000611,accuracy,left,0.2,18,experimental,7627,0.2,0,53
0.685365000012331,0,0.2,20,V,84,518.004999990575,accuracy,right,0.2,19,experimental,7627,0.2,1,84
1.99124999999162,0,0.2,20,V,47,1875.91000000294,accuracy,right,0.2,20,experimental,7627,0.2,0,47
1.37366499999166,180,0.2,20,V,81,1036.13000002224,accuracy,left,0.2,21,experimental,7627,0.2,0,81
1.15628500000387,180,0.2,20,V,85,779.860000009649,accuracy,left,0.2,22,experimental,7627,0.2,0,85
1.89536999998428,180,0.2,20,V,49,3830.01000000443,accuracy,left,0.2,23,experimental,7627,0.2,0,49
1.14081500001997,0,0.2,20,V,77,811.585000017658,accuracy,right,0.2,24,experimental,7627,0.2,1,77
1.63963499999978,0,0.2,20,V,74,754.795000014827,accuracy,right,0.2,25,experimental,7627,0.2,1,74
1.15776500001084,180,0.2,20,V,85,1118.4699999867,accuracy,left,0.2,26,experimental,7627,0.2,0,85
0.664309999993071,0,0.2,20,V,84,796.219999989495,accuracy,right,0.2,27,experimental,7627,0.2,0,84
2.75828500001784,0,0.2,20,V,90,688.965000008233,accuracy,right,0.2,28,experimental,7627,0.2,1,90
2.13500499998871,180,0.2,20,V,85,597.495000023395,accuracy,left,0.2,29,experimental,7627,0.2,1,85
1.58869000000414,0,0.2,20,V,63,950.889999978244,accuracy,right,0.2,30,experimental,7627,0.2,0,63
1.70386999999732,180,0.2,20,V,64,1282.20499999542,accuracy,left,0.2,31,experimental,7627,0.2,0,64
2.53623499997798,180,0.2,20,V,79,1709.05000000447,accuracy,left,0.2,32,experimental,7627,0.2,1,79
1.83619499998167,0,0.2,20,V,50,824.405000021681,accuracy,right,0.2,33,experimental,7627,0.2,1,50
1.17601999998465,180,0.2,20,V,67,1030.87000001781,accuracy,left,0.2,34,experimental,7627,0.2,1,67
1.28091499998141,0,0.2,20,V,82,922.279999998398,accuracy,right,0.2,35,experimental,7627,0.2,1,82
2.33419000002276,180,0.2,20,V,53,1739.07499999087,accuracy,left,0.2,36,experimental,7627,0.2,1,53
0.734895000001416,0,0.2,20,V,67,823.505000007339,accuracy,right,0.2,37,experimental,7627,0.2,1,67
1.05538999999408,180,0.2,20,V,50,951.365000015125,accuracy,left,0.2,38,experimental,7627,0.2,0,50
1.74161500000581,180,0.2,20,V,74,1527.6650000019,accuracy,left,0.2,39,experimental,7627,0.2,0,74
1.78048499999568,0,0.2,20,V,62,975.485000003129,accuracy,right,0.2,40,experimental,7627,0.2,1,62
1.4098150000209,180,0.2,20,V,63,1431.62499999721,accuracy,left,0.2,41,experimental,7627,0.2,0,63
0.986935000022873,180,0.2,20,V,85,1571.28500001319,accuracy,left,0.2,42,experimental,7627,0.2,1,85
2.54914000001736,180,0.2,20,V,66,2364.61499999836,accuracy,left,0.2,43,experimental,7627,0.2,1,66
1.50244500002079,0,0.2,20,V,75,1037.01999998931,accuracy,right,0.2,44,experimental,7627,0.2,1,75
0.968205000012182,0,0.2,20,V,83,796.900000015274,accuracy,right,0.2,45,experimental,7627,0.2,0,83
2.23375500002317,180,0.2,20,V,84,568.375000002794,accuracy,left,0.2,46,experimental,7627,0.2,0,84
2.3180399999842,0,0.2,20,V,86,1047.32000001334,accuracy,right,0.2,47,experimental,7627,0.2,0,86
1.76892000000179,0,0.2,20,V,66,1492.19999997877,accuracy,right,0.2,48,experimental,7627,0.2,1,66
1.45553499998711,180,0.2,20,V,81,853.434999997728,accuracy,left,0.2,49,experimental,7627,0.2,1,81
2.18143999998644,180,0.2,20,V,99,823.550000000745,accuracy,left,0.2,50,experimental,7627,0.2,0,99
2.08431999999471,0,0.2,20,V,73,940.689999988303,accuracy,right,0.2,51,experimental,7627,0.2,1,73
1.69030499999691,0,0.2,20,V,86,982.795000018552,accuracy,right,0.2,52,experimental,7627,0.2,1,86
2.10974499999452,0,0.2,20,V,50,1031.51999998931,accuracy,right,0.2,53,experimental,7627,0.2,0,50
1.66191000002436,0,0.2,20,V,79,827.669999998994,accuracy,right,0.2,54,experimental,7627,0.2,1,79
1.94924499999639,180,0.2,20,V,84,991.855000000447,accuracy,left,0.2,55,experimental,7627,0.2,1,84
1.70017999998573,0,0.2,20,V,94,1542.87500001397,accuracy,right,0.2,56,experimental,7627,0.2,1,94
1.77562999998871,0,0.2,20,V,81,775.66500002332,accuracy,right,0.2,57,experimental,7627,0.2,1,81
2.49382999999262,180,0.2,20,V,83,839.219999994151,accuracy,left,0.2,58,experimental,7627,0.2,0,83
2.10743500001263,180,0.2,20,V,35,1198.93499999307,accuracy,left,0.2,59,experimental,7627,0.2,0,35
2.39415000000782,180,0.2,20,V,88,921.059999993071,accuracy,left,0.2,60,experimental,7627,0.2,0,88
1.04467000000272,0,0.2,20,V,62,1215.1850000089,accuracy,right,0.2,1,experimental,7627,0.2,1,62
0.43888000000082,180,0.2,20,V,68,559.245000011288,accuracy,left,0.2,2,experimental,7627,0.2,1,68
0.620270000014454,180,0.2,20,V,73,575.395000021905,accuracy,left,0.2,3,experimental,7627,0.2,0,73
0.596400000009686,0,0.2,20,V,73,1239.93000001088,accuracy,right,0.2,4,experimental,7627,0.2,0,73
0.445899999991991,180,0.2,20,V,64,751.365000003949,accuracy,left,0.2,5,experimental,7627,0.2,1,64
0.500105000013486,180,0.2,20,V,75,796.80000001099,accuracy,left,0.2,6,experimental,7627,0.2,0,75
0.557160000026226,0,0.2,20,V,78,718.164999998175,accuracy,right,0.2,7,experimental,7627,0.2,0,78
0.604070000001229,180,0.2,20,V,78,662.750000017695,accuracy,left,0.2,8,experimental,7627,0.2,0,78
0.454140000015497,0,0.2,20,V,29,878.460000007413,accuracy,right,0.2,9,experimental,7627,0.2,0,29
0.687070000015199,0,0.2,20,V,71,705.760000011884,accuracy,right,0.2,10,experimental,7627,0.2,1,71
0.429324999975041,0,0.2,20,V,79,575.325000012293,accuracy,right,0.2,11,experimental,7627,0.2,1,79
0.359680000023916,180,0.2,20,V,73,541.989999998361,accuracy,left,0.2,12,experimental,7627,0.2,1,73
0.78723500002455,0,0.2,20,V,61,937.949999992736,accuracy,right,0.2,13,experimental,7627,0.2,1,61
0.504454999987036,0,0.2,20,V,37,760.535000008531,accuracy,right,0.2,14,experimental,7627,0.2,0,37
0.550390000018291,180,0.2,20,V,66,653.469999990426,accuracy,left,0.2,15,experimental,7627,0.2,0,66
0.602175000008196,180,0.2,20,V,31,1005.74500000197,accuracy,left,0.2,16,experimental,7627,0.2,1,31
0.578999999998137,0,0.2,20,V,58,798.039999994449,accuracy,right,0.2,17,experimental,7627,0.2,1,58
0.408005000004545,0,0.2,20,V,36,598.685000004247,accuracy,right,0.2,18,experimental,7627,0.2,0,36
0.501194999990053,180,0.2,20,V,59,571.194999996573,accuracy,left,0.2,19,experimental,7627,0.2,1,59
0.966729999985546,180,0.2,20,V,74,796.60500000976,accuracy,left,0.2,20,experimental,7627,0.2,1,74
0.458754999999888,0,0.2,20,V,42,782.28499999363,accuracy,right,0.2,21,experimental,7627,0.2,0,42
0.295929999993183,0,0.2,20,V,26,860.094999982044,accuracy,right,0.2,22,experimental,7627,0.2,1,26
0.43722500000149,180,0.2,20,V,65,725.810000003316,accuracy,left,0.2,23,experimental,7627,0.2,1,65
0.455809999984689,180,0.2,20,V,55,791.334999987856,accuracy,left,0.2,24,experimental,7627,0.2,1,55
0.683779999991879,180,0.2,20,V,73,661.114999994636,accuracy,left,0.2,25,experimental,7627,0.2,0,73
0.246269999974407,180,0.2,20,V,45,613.195000012405,accuracy,left,0.2,26,experimental,7627,0.2,1,45
0.285975000006147,180,0.2,20,V,50,796.455000002868,accuracy,left,0.2,27,experimental,7627,0.2,0,50
0.431174999976531,0,0.2,20,V,27,1537.69500000589,accuracy,right,0.2,28,experimental,7627,0.2,0,27
0.243075000005774,0,0.2,20,V,41,1010.57499999274,accuracy,right,0.2,29,experimental,7627,0.2,1,41
0.4780449999962,180,0.2,20,V,62,700.71999999322,accuracy,left,0.2,30,experimental,7627,0.2,1,62
0.428849999996833,180,0.2,20,V,81,1325.79999999143,accuracy,left,0.2,31,experimental,7627,0.2,1,81
0.966939999983646,0,0.2,20,V,65,493.470000015572,accuracy,right,0.2,32,experimental,7627,0.2,1,65
0.425269999977201,0,0.2,20,V,67,757.080000009388,accuracy,right,0.2,33,experimental,7627,0.2,0,67
0.534880000020377,180,0.2,20,V,63,639.230000000447,accuracy,left,0.2,34,experimental,7627,0.2,0,63
0.394780000002123,0,0.2,20,V,50,916.91500000935,accuracy,right,0.2,35,experimental,7627,0.2,0,50
0.663984999991953,0,0.2,20,V,46,2093.14500002097,accuracy,right,0.2,36,experimental,7627,0.2,0,46
0.225604999984615,0,0.2,20,V,32,1013.51499999873,accuracy,right,0.2,37,experimental,7627,0.2,1,32
0.705829999991693,180,0.2,20,V,77,539.669999998063,accuracy,left,0.2,38,experimental,7627,0.2,1,77
0.308220000006258,0,0.2,20,V,37,701.704999985173,accuracy,right,0.2,39,experimental,7627,0.2,1,37
