sub,rt,response,stim,cor,cj,rtcj,stimdiff,trial
1015072,1.983,1,1,1,6,3.862,47,27
1015072,2.644,0,1,0,5,2.918,47,28
1015072,1.652,0,1,0,5,2.968,52,29
1015072,1.84,1,0,0,3,4.252,57,30
1015072,1.819,0,0,1,5,2.522,63,31
1015072,1.695,1,1,1,5,3.618,63,32
1015072,1.654,1,1,1,4,2.565,57,33
1015072,1.294,0,0,1,4,2.154,57,34
1015072,1.508,1,1,1,5,3.328,52,35
1015072,0.892,0,0,1,5,2.138,52,36
1015072,1.599,0,0,1,5,1.294,47,37
1015072,0.939,1,1,1,6,2.009,47,38
1015072,2.69,0,0,1,5,1.209,43,39
1015072,2.425,0,0,1,5,1.244,43,40
1015072,1.637,0,0,1,5,1.503,38,41
1015072,0.96,0,0,1,5,0.629,38,42
1015072,1.272,1,0,0,5,0.727,35,43
1015072,0.821,1,1,1,5,0.819,38,44
1015072,1.331,0,1,0,5,0.608,38,45
1015072,0.887,1,1,1,5,0.843,43,46
1015072,1.054,0,1,0,5,0.523,43,47
1015072,1.063,0,0,1,5,0.519,47,48
1015072,1.738,0,0,1,5,0.673,47,49
1015072,2.382,0,0,1,5,0.504,43,50
1015072,1.179,0,0,1,5,0.394,43,51
1015072,1.032,0,0,1,5,0.748,38,52
1015072,0.863,1,1,1,5,1.268,38,53
1015072,1.08,1,0,0,5,0.794,35,54
1015072,0.895,1,1,1,5,0.549,38,55
1015072,1.467,0,1,0,5,0.548,38,56
1015072,0.949,0,0,1,5,0.563,43,57
1015072,1.23,1,0,0,5,0.418,43,58
1015072,1.036,1,1,1,5,0.384,47,59
1015072,0.897,1,1,1,5,0.414,47,60
1015072,0.946,0,1,0,5,0.609,43,61
1015072,1.158,1,1,1,4,0.529,47,62
1015072,0.91,1,1,1,5,1.455,47,63
1015072,0.921,1,1,1,5,0.615,43,64
1015072,0.774,1,1,1,5,0.433,43,65
1015072,1.328,0,0,1,5,0.574,38,66
1015072,0.929,0,0,1,5,0.489,38,67
1015072,0.741,1,1,1,5,0.433,35,68
1015072,0.917,1,1,1,5,1.089,35,69
1015072,0.836,0,0,1,5,0.468,32,70
1015072,0.756,1,1,1,5,0.469,32,71
1015072,0.951,1,0,0,5,0.329,29,72
1015072,0.784,1,0,0,4,1.004,32,73
1015072,1.054,1,1,1,5,0.317,35,74
1015072,0.912,1,0,0,5,0.293,35,75
1015072,0.767,0,0,1,5,0.478,38,76
1015072,1.02,1,1,1,5,0.753,38,77
1015072,0.914,1,1,1,4,0.438,35,78
1015072,0.792,1,1,1,5,0.445,35,79
1015072,1.178,0,0,1,5,0.428,32,80
1015072,0.755,0,0,1,4,0.42,32,81
1015072,0.636,1,1,1,5,0.364,29,82
1015072,0.582,1,1,1,5,0.349,29,83
1015072,1.815,1,0,0,5,0.698,26,84
1015072,0.725,1,1,1,5,0.384,29,85
1015072,0.777,0,0,1,4,0.573,29,86
1015072,1.386,1,0,0,5,0.973,26,87
1015072,0.723,1,1,1,5,0.414,29,88
1015072,0.719,0,0,1,4,0.4,29,89
1015072,1.2,0,0,1,4,0.429,26,90
1015072,0.799,0,0,1,4,0.598,26,91
1015072,1.036,0,0,1,5,0.779,23,92
1015072,1.137,0,0,1,4,0.579,23,93
1015072,1.039,0,1,0,5,0.423,21,94
1015072,0.938,0,1,0,4,0.864,23,95
1015072,1.045,1,1,1,4,0.444,26,96
1015072,0.73,0,1,0,4,0.458,26,97
1015072,0.633,0,0,1,5,0.699,29,98
1015072,0.78,1,0,0,4,0.438,29,99
1015072,0.996,0,0,1,4,0.428,32,100
1015072,0.983,1,0,0,4,0.353,32,101
1015072,0.901,0,0,1,4,0.389,35,102
1015072,1.004,1,1,1,4,0.368,35,103
1015072,0.772,0,0,1,4,0.413,32,104
1015072,0.689,1,1,1,5,0.403,32,105
1015072,0.736,1,1,1,4,0.399,29,106
1015072,0.793,1,0,0,4,0.483,29,107
1015072,0.839,0,0,1,4,0.453,32,108
1015072,0.972,1,1,1,4,1.354,32,109
1015072,0.762,1,1,1,4,0.315,29,110
1015072,0.959,1,1,1,4,0.373,29,111
1015072,0.9,1,1,1,4,2.532,26,112
1015072,0.882,1,1,1,4,0.404,26,113
1015072,0.691,1,1,1,4,0.314,23,114
1015072,0.693,1,1,1,4,0.318,23,115
1015072,1.717,0,0,1,4,0.434,21,116
1015072,0.671,0,0,1,4,0.373,21,117
1015072,1.368,1,1,1,4,0.489,19,118
1015072,0.663,0,1,0,4,0.704,19,119
1015072,0.744,0,0,1,4,0.519,21,120
1015072,0.531,1,1,1,4,0.613,21,121
1015072,0.893,0,0,1,4,0.332,19,122
1015072,0.687,0,0,1,4,0.338,19,123
1015072,0.012,0,1,0,4,1.268,17,124
1015072,0.517,0,0,1,4,0.363,19,125
1015072,0.797,0,0,1,4,0.349,19,126
1015072,0.642,0,1,0,5,0.625,17,127
1015072,0.651,0,1,0,5,0.449,19,128
1015072,0.709,0,1,0,4,0.398,21,129
1015072,0.731,0,0,1,4,0.404,23,130
1015072,0.624,0,0,1,5,0.468,23,131
1015072,0.592,0,1,0,5,0.419,21,132
1015072,0.711,0,1,0,5,0.425,23,133
1015072,0.727,0,0,1,5,0.472,26,134
1015072,0.564,1,1,1,5,0.399,26,135
1015072,0.559,0,0,1,4,0.654,23,136
1015072,0.582,0,0,1,5,0.479,23,137
1015072,0.565,0,1,0,5,0.524,21,138
1015072,1.214,0,0,1,5,0.439,23,139
1015072,0.975,1,0,0,5,0.544,23,140
1015072,0.46,0,0,1,5,0.404,26,141
1015072,0.681,0,0,1,5,0.799,26,142
1015072,0.374,0,0,1,5,0.404,23,143
1015072,0.725,0,1,0,5,0.333,23,144
1015072,0.416,0,1,0,5,0.373,26,145
1015072,0.628,0,1,0,5,0.709,29,146
1015072,1.598,1,1,1,2,0.463,32,147
1015072,0.502,0,0,1,5,0.664,32,148
1015072,0.685,0,0,1,5,0.364,29,149
1015072,0.755,0,0,1,5,0.398,29,150
1015072,0.637,0,0,1,4,0.403,26,151
1015072,0.644,0,0,1,4,0.429,26,152
1015072,0.493,1,1,1,4,0.62,23,153
1015072,1.219,1,0,0,4,0.465,23,154
1015072,0.815,1,1,1,4,0.368,26,155
1015072,0.788,1,1,1,4,0.403,26,156
1015072,0.697,0,0,1,4,0.405,23,157
1015072,0.658,0,0,1,5,0.469,23,158
1015072,0.767,1,1,1,4,0.407,21,159
1015072,0.505,0,1,0,4,0.384,21,160
1015072,0.307,1,1,1,4,0.605,23,161
1015072,1.278,0,1,0,4,0.362,23,162
1015072,0.376,1,1,1,4,0.453,26,163
1015072,0.947,1,1,1,4,0.295,26,164
1015072,0.72,0,1,0,4,0.328,23,165
1015072,0.706,0,0,1,4,0.318,26,166
1015072,0.775,1,0,0,4,0.454,26,167
1015072,1.068,1,1,1,4,0.358,29,168
1015072,0.953,1,1,1,4,0.281,29,169
1015072,0.737,0,0,1,4,0.298,26,170
1015072,1.067,1,1,1,4,1.617,26,171
1015072,0.903,0,0,1,4,0.328,23,172
1015072,0.783,0,0,1,4,0.359,23,173
1015072,0.847,1,1,1,4,0.379,21,174
1015072,0.763,1,0,0,4,0.88,21,175
1015072,1.428,0,0,1,4,0.309,23,176
1015072,0.533,0,1,0,4,0.439,23,177
1015072,0.441,0,1,0,4,0.344,26,178
1015072,0.477,0,1,0,4,0.378,29,179
1015072,0.349,1,0,0,4,0.519,32,180
1015072,0.341,0,0,1,4,0.314,35,181
1015072,0.524,0,1,0,4,0.324,35,182
1015072,0.556,1,1,1,4,0.373,38,183
1015072,0.443,0,0,1,4,0.29,38,184
1015072,0.55,0,1,0,4,0.279,35,185
1015072,0.763,0,0,1,5,0.308,38,186
1015072,0.84,0,0,1,4,0.618,38,187
1015072,0.774,1,1,1,4,0.379,35,188
1015072,1.093,0,0,1,4,0.293,35,189
1015072,0.86,1,0,0,4,0.408,32,190
1015072,0.518,0,0,1,4,0.328,35,191
1015072,0.541,0,0,1,4,0.313,35,192
1015072,1.025,0,0,1,5,0.454,32,193
1015072,0.509,0,1,0,5,0.338,32,194
1015072,0.476,0,1,0,5,0.348,35,195
1015072,0.941,1,1,1,4,0.313,38,196
1015072,0.473,0,1,0,4,0.329,38,197
1015072,0.588,0,0,1,5,0.329,43,198
1015072,0.794,0,0,1,5,0.318,43,199
1015072,0.789,1,0,0,5,0.383,38,200
1015072,0.57,0,0,1,5,0.348,43,201
1015072,1.356,0,0,1,4,0.354,43,202
1015072,0.789,1,1,1,4,0.364,38,203
1015072,1.158,0,0,1,4,0.319,38,204
1015072,0.757,1,1,1,5,0.459,35,205
1015072,0.596,1,1,1,4,0.328,35,206
1015072,0.663,1,0,0,4,0.353,32,207
1015072,1.375,0,0,1,5,0.473,35,208
1015072,0.625,1,1,1,5,0.345,35,209
1015072,0.914,1,1,1,5,0.279,32,210
1015072,0.876,1,1,1,5,0.594,32,211
1015072,0.671,1,1,1,5,0.308,29,212
1015072,0.515,1,1,1,5,0.269,29,213
1015072,1.35,0,1,0,5,0.939,26,214
1015072,0.954,1,1,1,5,0.533,29,215
1015072,1.001,1,0,0,5,0.328,29,216
1015072,0.939,1,0,0,5,0.548,32,217
1015072,0.752,1,1,1,5,0.263,35,218
1015072,0.485,0,1,0,5,0.344,35,219
1015072,0.987,0,0,1,5,0.358,38,220
1015072,0.597,1,1,1,5,0.349,38,221
1015072,0.877,1,0,0,5,0.323,35,222
1015072,1.075,0,0,1,5,0.514,38,223
1015072,0.618,1,1,1,5,0.295,38,224
1015072,0.575,1,0,0,5,0.311,35,225
1015072,0.66,0,0,1,5,0.35,38,226
1015072,0.757,0,1,0,5,0.383,38,227
1015072,0.521,1,1,1,5,0.495,43,228
1015072,0.532,1,1,1,5,0.293,43,229
1015072,0.546,0,0,1,5,0.288,38,230
1015072,0.493,0,0,1,5,0.278,38,231
1015072,0.639,0,1,0,5,0.29,35,232
1015072,0.53,0,1,0,5,0.263,38,233
1015072,1.232,0,0,1,5,0.289,43,234
1015072,0.788,1,1,1,3,0.468,43,235
1015072,0.585,0,0,1,5,0.303,38,236
1015072,0.48,0,0,1,5,0.244,38,237
1015072,0.648,1,1,1,5,0.292,35,238
1015072,0.565,0,0,1,5,0.279,35,239
1015072,0.538,0,0,1,5,0.059,32,240
1015072,0.601,1,0,0,5,0.263,32,241
1015072,0.476,0,0,1,5,0.26,35,242
1015072,0.581,0,0,1,5,0.248,35,243
1015072,0.463,1,1,1,5,0.25,32,244
1015072,0.459,0,1,0,5,0.254,32,245
1015072,0.728,0,1,0,5,0.858,35,246
1015072,0.449,1,1,1,5,0.244,38,247
1015072,0.559,0,0,1,5,0.283,38,248
1015072,0.883,1,0,0,5,0.312,35,249
1015072,0.415,0,0,1,5,0.244,38,250
1015072,0.454,0,0,1,5,0.248,38,251
1015072,0.449,0,0,1,5,0.238,35,252
1015072,0.531,0,1,0,5,0.243,35,253
1015072,0.588,0,0,1,5,0.228,38,254
1015072,1.411,1,1,1,5,0.298,38,255
1015072,0.509,0,1,0,5,0.238,35,256
1015072,0.421,0,0,1,5,0.228,38,257
1015072,0.499,1,0,0,5,0.338,38,258
1015072,0.616,0,1,0,5,0.279,43,259
1015072,0.67,1,1,1,5,0.254,47,260
1015072,0.564,1,1,1,3,0.278,47,261
1015072,0.558,0,1,0,5,0.289,43,262
1015072,0.986,0,1,0,5,0.284,47,263
1015072,0.869,0,1,0,5,0.254,52,264
1015072,0.664,1,1,1,5,1.308,57,265
1015072,1.003,0,0,1,5,0.348,57,266
1015072,0.53,0,0,1,5,0.223,52,267
1015072,0.457,1,1,1,3,0.273,52,268
1015072,0.787,0,1,0,5,0.018,47,269
1015072,0.533,0,0,1,5,0.219,52,270
1015072,0.869,0,1,0,5,0.238,52,271
1015072,0.894,0,0,1,5,0.248,57,272
1015072,0.658,0,0,1,5,0.008,57,273
1015072,1.099,1,1,1,3,0.258,52,274
1015072,0.509,0,0,1,5,0.192,52,275
1015072,0.652,0,0,1,5,0.058,47,276
1015072,0.822,1,1,1,4,0.283,47,277
1015072,0.937,1,1,1,4,0.279,43,278
1015072,0.591,1,1,1,4,0.263,43,279
1015072,0.971,0,0,1,4,0.888,38,280
1015072,0.589,0,0,1,4,0.479,38,281
1015072,0.624,0,1,0,4,0.338,35,282
1015072,0.571,1,1,1,4,0.303,38,283
1015072,0.603,0,0,1,4,0.278,38,284
1015072,0.505,0,1,0,4,0.289,35,285
1015072,0.648,0,0,1,4,0.249,38,286
1015072,0.021,0,0,1,4,0.844,38,287
1015072,0.526,1,1,1,4,0.283,35,288
1015072,0.351,0,0,1,4,0.463,35,289
1015072,0.517,0,0,1,4,0.273,32,290
1015072,0.434,0,0,1,4,0.403,32,291
1015072,0.404,0,0,1,4,0.393,29,292
1015072,0.429,0,0,1,4,0.603,29,293
1015072,0.445,0,1,0,4,0.018,26,294
1015072,1.015,0,1,0,4,0.348,29,295
1015072,0.767,1,1,1,3,0.264,32,296
1015072,0.472,0,1,0,4,0.259,32,297
1015072,0.448,0,0,1,4,0.259,35,298
1015072,0.45,0,0,1,4,0.219,35,299
1015072,0.591,0,0,1,4,0.509,32,300
1015072,0.524,0,0,1,4,0.324,32,301
1015072,0.359,0,0,1,4,0.468,29,302
1015072,0.417,0,1,0,4,0.273,29,303
1015072,0.681,0,0,1,4,0.323,32,304
1015072,0.779,1,1,1,4,0.399,32,305
1015072,0.554,0,1,0,4,0.298,29,306
1015072,0.664,0,0,1,4,0.309,32,307
1015072,0.578,0,0,1,4,0.333,32,308
1015072,0.726,1,1,1,4,0.399,29,309
1015072,0.527,0,1,0,4,0.639,29,310
1015072,0.473,0,1,0,4,0.283,32,311
1015072,0.441,1,1,1,3,0.309,35,312
1015072,0.501,0,1,0,4,0.289,35,313
1015072,0.695,1,1,1,3,0.505,38,314
1015072,1.025,1,1,1,3,0.378,38,315
1015072,0.636,0,0,1,4,0.453,35,316
1015072,0.609,1,0,0,3,0.323,35,317
1015072,0.506,1,1,1,3,0.276,38,318
1015072,0.666,0,1,0,4,0.608,38,319
1015072,0.525,0,0,1,4,0.47,43,320
1015072,0.7,0,1,0,4,0.428,43,321
1015072,0.597,0,0,1,4,0.519,47,322
1015072,0.662,1,0,0,3,0.029,47,323
1015072,0.422,0,1,0,4,0.329,52,324
1015072,0.745,0,0,1,4,0.304,57,325
1015072,0.647,0,0,1,4,0.293,57,326
1015072,0.497,1,1,1,4,0.348,52,327
1015072,0.645,1,1,1,4,2.088,52,328
1015072,0.632,0,1,0,4,0.298,47,329
1015072,0.495,0,0,1,4,0.288,52,330
1015072,0.497,0,0,1,4,0.273,52,331
1015072,0.558,1,1,1,4,0.453,47,332
1015072,0.468,0,1,0,4,0.303,47,333
1015072,0.389,1,0,0,4,0.293,52,334
1015072,0.472,0,1,0,4,0.257,57,335
1015072,0.99,0,0,1,4,0.328,63,336
1015072,0.605,0,0,1,4,0.279,63,337
1015072,0.528,1,1,1,4,0.333,57,338
1015072,0.456,0,0,1,4,0.269,57,339
1015072,0.493,0,0,1,4,0.309,52,340
1015072,0.555,1,0,0,4,0.357,52,341
1015072,0.545,0,0,1,4,0.304,57,342
1015072,0.588,0,0,1,4,0.353,57,343
1015072,0.487,1,1,1,4,0.339,52,344
1015072,0.546,1,1,1,4,0.333,52,345
1015072,0.7,1,1,1,4,0.298,47,346
1015072,0.499,0,1,0,4,0.243,47,347
1015072,0.611,1,0,0,4,0.284,52,348
1015072,0.51,0,0,1,4,0.233,57,349
1015072,1.246,0,0,1,4,0.683,57,350
1015072,0.644,0,0,1,4,0.494,52,351
1015072,0.343,0,0,1,4,0.257,52,352
1015072,0.452,1,1,1,4,0.154,47,353
1015072,0.547,0,0,1,4,0.288,47,354
1015072,0.985,0,1,0,4,0.224,43,355
1015072,0.847,1,1,1,4,0.278,47,356
1015072,0.676,0,0,1,4,0.239,47,357
1015072,0.449,0,0,1,4,0.264,43,358
1015072,0.769,0,1,0,4,0.313,43,359
1015072,0.689,1,1,1,4,0.278,47,360
1015072,0.688,0,1,0,4,0.238,47,361
1015072,0.749,0,1,0,4,0.245,52,362
1015072,0.459,1,1,1,3,0.269,57,363
1015072,0.575,0,1,0,4,0.259,57,364
1015072,0.573,1,1,1,4,0.773,63,365
1015072,0.589,0,0,1,4,0.483,63,366
1015072,0.942,0,0,1,4,0.193,57,367
1015072,0.552,0,1,0,4,0.214,57,368
1015072,0.607,0,1,0,4,0.199,63,369
1015072,0.555,0,0,1,4,0.209,70,370
1015072,0.821,1,1,1,4,0.387,70,371
1015072,0.729,0,0,1,4,0.209,63,372
1015072,0.953,0,0,1,4,0.378,63,373
1015072,0.684,0,1,0,4,0.063,57,374
1015072,0.636,0,0,1,4,0.198,63,375
1015072,0.651,0,0,1,4,0.233,63,376
1015072,0.779,1,1,1,4,0.423,57,377
1015072,0.728,0,1,0,4,0.248,57,378
1015072,0.84,1,1,1,4,0.294,63,379
1015072,0.54,0,0,1,4,0.294,63,380
1015072,0.531,0,0,1,6,0.049,57,381
1015072,1.283,1,1,1,4,0.309,57,382
1015072,0.495,0,1,0,4,0.258,52,383
1015072,0.607,0,0,1,4,0.249,57,384
1015072,0.65,1,1,1,4,0.278,57,385
1015072,0.589,0,0,1,4,0.227,52,386
1015072,0.451,0,0,1,4,0.253,52,387
1015072,0.816,1,1,1,4,0.254,47,388
1015072,0.567,0,0,1,4,0.219,47,389
1015072,0.526,1,0,0,4,0.258,43,390
1015072,0.585,0,0,1,4,0.224,47,391
1015072,0.892,0,0,1,4,0.264,47,392
1015072,0.559,0,0,1,4,0.194,43,393
1015072,0.628,1,1,1,4,0.387,43,394
1015072,0.527,0,1,0,4,0.223,38,395
1015072,0.916,0,1,0,4,0.187,43,396
1015072,0.509,1,1,1,3,0.243,47,397
1015072,0.635,0,0,1,4,0.35,47,398
1015072,0.592,0,0,1,4,0.184,43,399
1015072,0.884,1,0,0,3,0.343,43,400
1015072,0.47,0,0,1,4,0.183,47,401
1015072,1.176,0,0,1,4,0.362,47,402
1015072,0.704,1,1,1,3,0.123,43,403
1015072,0.938,0,0,1,4,0.384,43,404
1015072,0.77,1,1,1,4,0.623,38,405
1015072,0.959,0,1,0,4,0.272,38,406
1015072,0.654,1,0,0,3,0.308,43,407
1015072,0.635,0,0,1,4,0.218,47,408
1015072,0.757,0,1,0,4,0.222,47,409
1015072,1.074,0,1,0,4,0.243,52,410
1015072,1.388,0,1,0,4,0.302,57,411
1015072,0.929,1,1,1,4,0.299,63,412
1015072,0.915,1,1,1,4,0.273,63,413
1015072,0.974,1,1,1,4,1.034,57,414
1015072,0.893,1,1,1,4,0.294,57,415
1015072,0.494,0,0,1,4,0.279,52,416
1015072,0.684,0,0,1,4,0.278,52,417
1015072,0.54,1,1,1,4,1.133,47,418
1015072,0.532,0,1,0,4,0.254,47,419
1015072,0.732,0,0,1,4,0.267,52,420
1015072,0.673,1,1,1,4,0.309,52,421
1015072,1.142,1,0,0,4,0.294,47,422
1015072,0.55,0,0,1,4,0.257,52,423
1015072,0.832,1,1,1,5,0.349,52,424
1015072,1.469,1,0,0,4,0.263,47,425
1015072,0.631,1,0,0,4,0.263,52,426
1015072,1.157,0,1,0,6,0.788,57,427
1015072,1.193,1,1,1,4,0.719,63,428
1015072,1.274,0,1,0,4,0.353,63,429
1015072,0.788,0,0,1,5,0.667,70,430
1015072,0.649,0,0,1,4,0.384,70,431
1015072,0.844,1,1,1,4,0.528,63,432
1015072,0.97,0,1,0,4,0.308,63,433
1015072,1.104,0,0,1,5,0.413,70,434
1015072,0.98,0,1,0,5,0.387,70,435
1015072,0.636,0,0,1,5,0.423,77,436
1015072,0.633,0,0,1,5,0.339,77,437
1015072,0.855,1,1,1,5,0.388,70,438
1015072,0.555,0,0,1,5,0.359,70,439
1015072,0.614,0,0,1,5,0.353,63,440
1015072,0.548,0,0,1,5,0.333,63,441
1015072,0.529,0,0,1,5,0.298,57,442
1015072,0.529,0,0,1,5,0.242,57,443
1015072,0.65,0,1,0,5,0.294,52,444
1015072,0.499,1,1,1,5,0.634,57,445
1015072,0.555,0,1,0,5,0.324,57,446
1015072,0.953,0,1,0,5,0.538,63,447
1015072,0.724,1,0,0,5,0.418,70,448
1015072,1.115,0,0,1,4,0.328,77,449
1015072,0.514,0,0,1,5,0.508,77,450
1015072,0.582,0,0,1,5,0.294,70,451
1015072,0.454,0,0,1,5,0.227,70,452
1015072,0.754,0,1,0,5,0.478,63,453
1015072,0.482,0,0,1,4,0.313,70,454
1015072,0.394,0,1,0,5,0.654,70,455
1015072,0.699,1,1,1,5,0.603,77,456
1015072,1.827,0,0,1,5,0.38,77,457
1015072,0.569,0,0,1,5,0.683,70,458
1015072,0.646,1,1,1,5,0.398,70,459
1015072,0.387,0,1,0,5,0.289,63,460
1015072,0.827,1,1,1,5,0.427,70,461
1015072,0.476,0,1,0,5,0.523,70,462
1015072,0.61,0,1,0,5,0.333,77,463
1015072,0.718,0,1,0,5,0.343,86,464
1015072,0.492,1,1,1,5,0.328,95,465
1015072,0.382,0,0,1,5,0.582,95,466
1015072,0.75,0,0,1,5,0.308,86,467
1015072,0.544,1,1,1,5,0.324,86,468
1015072,0.533,1,1,1,5,0.364,77,469
1015072,0.31,0,0,1,5,0.27,77,470
1015072,0.581,1,1,1,5,0.303,70,471
1015072,0.487,0,0,1,5,0.293,70,472
1015072,0.815,0,0,1,5,0.323,63,473
1015072,0.595,0,1,0,5,0.283,63,474
1015072,0.566,0,0,1,5,0.283,70,475
1015072,0.678,0,0,1,5,0.484,70,476
1015072,1.177,1,1,1,6,0.349,63,477
1015072,0.515,0,1,0,5,0.573,63,478
1015072,0.611,1,1,1,4,0.312,70,479
1015072,0.456,0,0,1,4,0.273,70,480
1015072,0.535,0,0,1,4,0.278,63,481
1015072,0.607,1,1,1,4,0.204,63,482
1015072,0.88,1,1,1,4,0.277,57,483
1015072,0.581,0,0,1,4,0.283,57,484
1015072,0.583,1,1,1,4,0.208,52,485
1015072,0.544,0,0,1,4,0.254,52,486
1015072,0.526,0,0,1,4,0.313,47,487
1015072,0.692,1,1,1,4,0.508,47,488
1015072,0.613,0,0,1,5,0.329,43,489
1015072,0.725,0,0,1,4,0.245,43,490
1015072,0.561,0,0,1,4,0.263,38,491
1015072,0.77,0,0,1,4,0.228,38,492
1015072,0.584,0,0,1,4,0.223,35,493
1015072,0.557,1,1,1,4,0.237,35,494
1015072,0.46,0,1,0,4,0.197,32,495
1015072,0.484,0,1,0,4,0.249,35,496
1015072,0.739,1,1,1,4,0.357,38,497
1015072,0.668,1,0,0,4,0.218,38,498
1015072,0.414,0,0,1,4,0.284,43,499
1015072,0.423,0,0,1,4,0.263,43,500
1015072,0.814,1,0,0,4,0.234,38,501
1015072,0.407,0,0,1,4,0.208,43,502
1015072,0.665,1,1,1,4,0.288,43,503
1015072,1.135,1,0,0,4,0.324,38,504
1015072,0.451,1,1,1,4,0.363,43,505
1015072,0.499,1,1,1,4,0.248,43,506
1015072,0.638,0,0,1,4,0.298,38,507
1015072,0.748,0,0,1,4,0.237,38,508
1015072,0.561,0,1,0,4,0.249,35,509
1015072,0.493,1,1,1,4,0.223,38,510
1015072,0.695,1,1,1,4,0.303,38,511
1015072,0.572,1,1,1,4,0.268,35,512
1015072,0.512,0,1,0,4,1.198,35,513
1015072,0.723,1,1,1,4,0.568,38,514
1015072,0.717,0,1,0,4,0.268,38,515
1015072,0.62,0,0,1,4,0.278,43,516
1015072,0.521,0,0,1,4,0.335,43,517
1015072,0.634,1,1,1,4,0.323,38,518
1015072,0.558,1,1,1,4,0.262,38,519
1015072,1.131,1,0,0,4,0.295,35,520
1015072,0.609,0,1,0,4,0.293,38,521
1015072,0.483,0,0,1,4,0.258,43,522
1015072,0.534,0,0,1,4,0.282,43,523
1015072,0.615,1,1,1,4,0.278,38,524
1015072,0.763,1,0,0,4,0.318,38,525
1015072,0.738,1,0,0,4,0.902,43,526
1129340,3.684,0,0,1,5,3.224,77,27
1129340,1.632,1,1,1,3,1.583,77,28
1129340,0.771,1,1,1,4,1.417,70,29
1129340,1.436,0,0,1,6,1.146,70,30
1129340,0.747,1,1,1,6,8.968,63,31
1129340,1.202,0,0,1,4,3.69,63,32
1129340,0.947,1,1,1,5,0.793,57,33
1129340,1.003,0,0,1,5,2.583,57,34
1129340,0.524,0,0,1,4,0.594,52,35
1129340,0.649,1,1,1,3,0.602,52,36
1129340,1.125,0,0,1,5,1.04,47,37
1129340,0.846,1,1,1,3,2.139,47,38
1129340,0.727,1,1,1,5,1.025,43,39
1129340,0.639,1,1,1,5,3.215,43,40
1129340,1.129,0,1,0,5,0.54,38,41
1129340,1.087,1,0,0,5,0.502,43,42
1129340,0.632,0,0,1,5,2.435,47,43
1129340,1.052,0,0,1,5,2.761,47,44
1129340,1.212,0,1,0,5,1.149,43,45
1129340,3.361,0,1,0,6,2.601,47,46
1129340,0.729,0,0,1,5,0.353,52,47
1129340,0.57,1,1,1,2,0.972,52,48
1129340,0.554,1,1,1,2,0.757,47,49
1129340,1.037,0,1,0,5,0.625,47,50
1129340,0.642,0,0,1,5,0.68,52,51
1129340,0.553,1,1,1,2,0.671,52,52
1129340,1.483,0,0,1,5,0.566,47,53
1129340,1.297,1,1,1,2,0.758,47,54
1129340,0.893,1,0,0,5,0.575,43,55
1129340,0.848,0,0,1,5,0.967,47,56
1129340,0.85,0,1,0,5,0.525,47,57
1129340,0.672,0,0,1,5,0.395,52,58
1129340,0.768,1,1,1,5,0.658,52,59
1129340,0.919,0,0,1,6,0.881,47,60
1129340,1.432,0,0,1,6,4.413,47,61
1129340,1.016,1,0,0,5,0.538,43,62
1129340,1.081,0,0,1,6,1.28,47,63
1129340,0.786,1,1,1,5,0.544,47,64
1129340,0.53,1,1,1,5,0.387,43,65
1129340,1.306,0,0,1,6,0.859,43,66
1129340,0.95,0,1,0,5,0.437,38,67
1129340,0.581,0,0,1,5,0.589,43,68
1129340,0.767,1,1,1,5,0.96,43,69
1129340,1.043,0,0,1,5,0.388,38,70
1129340,0.611,0,0,1,5,0.417,38,71
1129340,0.69,1,1,1,5,0.36,35,72
1129340,0.896,1,0,0,3,1.007,35,73
1129340,0.756,0,1,0,5,0.989,38,74
1129340,0.657,1,1,1,5,0.564,43,75
1129340,0.65,1,1,1,5,0.579,43,76
1129340,1.359,0,0,1,5,0.51,38,77
1129340,1.191,1,1,1,5,0.74,38,78
1129340,1.688,1,1,1,3,0.534,35,79
1129340,0.632,0,0,1,5,0.656,35,80
1129340,0.791,1,1,1,5,0.421,32,81
1129340,0.63,0,0,1,5,0.577,32,82
1129340,0.758,1,1,1,5,0.315,29,83
1129340,1.543,0,0,1,5,0.336,29,84
1129340,0.729,1,0,0,4,0.759,26,85
1129340,0.778,1,1,1,5,0.351,29,86
1129340,0.745,0,0,1,6,0.772,29,87
1129340,0.541,1,1,1,5,0.405,26,88
1129340,0.566,1,1,1,5,0.43,26,89
1129340,0.657,1,1,1,5,0.332,23,90
1129340,0.687,1,1,1,5,0.305,23,91
1129340,1.243,0,0,1,5,0.293,21,92
1129340,0.555,1,0,0,5,0.318,21,93
1129340,0.857,1,0,0,5,0.252,23,94
1129340,0.579,1,1,1,5,0.292,26,95
1129340,0.893,0,1,0,5,0.406,26,96
1129340,1.606,0,0,1,6,0.466,29,97
1129340,0.647,1,1,1,6,0.698,29,98
1129340,0.955,0,1,0,5,0.374,26,99
1129340,1.013,1,1,1,5,0.303,29,100
1129340,0.53,0,0,1,5,0.315,29,101
1129340,0.354,0,1,0,5,0.286,26,102
1129340,0.477,0,0,1,5,0.278,29,103
1129340,0.354,0,1,0,5,0.262,29,104
1129340,0.4,1,0,0,5,0.304,32,105
1129340,0.454,0,0,1,5,0.232,35,106
1129340,0.377,1,1,1,5,0.248,35,107
1129340,0.598,0,0,1,5,0.29,32,108
1129340,0.534,0,1,0,5,0.23,32,109
1129340,0.654,1,0,0,6,0.374,35,110
1129340,0.612,0,0,1,5,0.378,38,111
1129340,0.574,0,0,1,6,0.33,38,112
1129340,0.9,1,0,0,5,0.278,35,113
1129340,0.587,1,1,1,5,0.274,38,114
1129340,0.79,1,1,1,5,0.419,38,115
1129340,1.048,0,0,1,5,0.322,35,116
1129340,0.534,1,1,1,5,0.383,35,117
1129340,0.699,1,0,0,5,0.346,32,118
1129340,0.292,1,1,1,5,0.211,35,119
1129340,1.296,0,0,1,5,0.522,35,120
1129340,0.711,0,0,1,5,0.364,32,121
1129340,0.737,0,1,0,5,0.309,32,122
1129340,1.314,0,0,1,5,0.345,35,123
1129340,0.794,1,1,1,4,0.48,35,124
1129340,0.62,1,1,1,4,0.347,32,125
1129340,0.529,0,1,0,5,0.324,32,126
1129340,0.63,0,0,1,5,0.362,35,127
1129340,0.879,0,1,0,5,0.442,35,128
1129340,0.919,1,1,1,5,0.377,38,129
1129340,0.937,0,0,1,6,0.395,38,130
1129340,0.722,1,1,1,5,0.416,35,131
1129340,0.985,0,0,1,5,0.477,35,132
1129340,0.721,1,1,1,5,0.491,32,133
1129340,1.248,0,0,1,5,0.393,32,134
1129340,0.558,0,0,1,5,0.419,29,135
1129340,2.982,1,1,1,6,5.898,29,136
1129340,3.301,1,0,0,3,1.848,26,137
1129340,2.111,0,1,0,5,0.425,29,138
1129340,0.829,0,1,0,5,0.687,32,139
1129340,0.529,1,1,1,5,0.592,35,140
1129340,0.643,1,1,1,5,0.673,35,141
1129340,0.611,0,0,1,5,0.82,32,142
1129340,0.57,0,0,1,5,0.648,32,143
1129340,0.509,0,0,1,5,0.617,29,144
1129340,0.539,0,1,0,3,1.586,29,145
1129340,0.675,1,1,1,5,0.718,32,146
1129340,0.744,0,0,1,6,1.322,32,147
1129340,0.527,1,1,1,4,0.55,29,148
1129340,0.562,0,1,0,5,0.505,29,149
1129340,0.57,1,1,1,4,0.633,32,150
1129340,0.342,0,0,1,5,0.85,32,151
1129340,0.253,1,1,1,5,0.635,29,152
1129340,0.531,0,0,1,5,0.68,29,153
1129340,0.558,1,1,1,6,1.346,26,154
1129340,0.414,1,0,0,6,1.433,26,155
1129340,3.242,1,0,0,3,0.61,29,156
1129340,1.261,1,1,1,3,0.492,32,157
1129340,1.246,0,0,1,3,1.444,32,158
1129340,0.792,1,1,1,4,0.934,29,159
1129340,1.006,0,0,1,5,1.026,29,160
1129340,1.246,1,0,0,2,0.803,26,161
1129340,0.778,0,0,1,4,0.345,29,162
1129340,0.505,1,0,0,4,0.572,29,163
1129340,0.459,1,1,1,4,0.507,32,164
1129340,0.354,1,1,1,4,0.55,32,165
1129340,0.371,1,0,0,4,0.735,29,166
1129340,0.423,0,1,0,4,0.714,32,167
1129340,0.613,0,0,1,4,0.459,35,168
1129340,0.522,0,1,0,4,0.565,35,169
1129340,0.447,0,0,1,4,0.494,38,170
1129340,0.275,0,0,1,4,0.397,38,171
1129340,0.756,1,1,1,4,0.716,35,172
1129340,0.648,0,0,1,5,0.379,35,173
1129340,0.617,0,1,0,5,0.531,32,174
1129340,0.608,1,1,1,6,1.199,35,175
1129340,0.586,1,1,1,4,0.482,35,176
1129340,0.938,1,0,0,4,0.35,32,177
1129340,0.881,1,1,1,4,0.514,35,178
1129340,0.523,1,1,1,4,0.559,35,179
1129340,0.498,0,0,1,5,0.402,32,180
1129340,0.54,1,1,1,4,0.555,32,181
1129340,0.731,1,0,0,3,1.579,29,182
1129340,0.563,1,1,1,5,0.63,32,183
1129340,0.638,1,0,0,5,0.486,32,184
1129340,0.437,1,0,0,3,1.568,35,185
1129340,0.566,1,1,1,5,0.489,38,186
1129340,0.664,0,0,1,5,0.406,38,187
1129340,0.524,1,1,1,5,0.422,35,188
1129340,0.387,1,1,1,5,0.502,35,189
1129340,0.581,0,1,0,5,0.375,32,190
1129340,0.528,1,1,1,5,0.39,35,191
1129340,0.51,1,0,0,5,0.53,35,192
1129340,0.385,1,0,0,4,0.43,38,193
1129340,0.379,1,0,0,5,0.425,43,194
1129340,0.361,1,1,1,5,0.567,47,195
1129340,0.52,1,1,1,5,0.345,47,196
1129340,0.573,0,0,1,5,0.341,43,197
1129340,0.563,1,1,1,5,0.415,43,198
1129340,0.531,1,1,1,5,0.406,38,199
1129340,0.471,1,1,1,5,0.392,38,200
1129340,0.508,0,0,1,5,0.423,35,201
1129340,0.553,1,1,1,5,0.375,35,202
1129340,0.503,0,0,1,5,0.381,32,203
1129340,0.533,1,1,1,5,0.367,32,204
1129340,0.502,0,0,1,5,0.599,29,205
1129340,0.514,0,0,1,5,0.405,29,206
1129340,0.451,1,1,1,5,0.482,26,207
1129340,0.469,1,0,0,5,0.678,26,208
1129340,0.753,1,1,1,5,0.52,29,209
1129340,0.492,0,0,1,5,0.397,29,210
1129340,0.59,1,0,0,5,0.597,26,211
1129340,0.441,0,0,1,5,0.521,29,212
1129340,0.542,0,0,1,5,0.861,29,213
1129340,0.561,0,1,0,5,1.035,26,214
1129340,0.935,0,1,0,5,0.564,29,215
1129340,0.962,0,0,1,5,0.774,32,216
1129340,0.705,0,1,0,5,0.564,32,217
1129340,0.483,0,0,1,5,0.511,35,218
1129340,0.697,0,1,0,5,0.627,35,219
1129340,0.6,0,0,1,5,0.671,38,220
1129340,0.646,0,0,1,5,2.497,38,221
1129340,0.699,0,1,0,5,0.421,35,222
1129340,0.547,0,0,1,5,0.525,38,223
1129340,0.593,0,1,0,6,0.492,38,224
1129340,0.44,0,1,0,5,0.49,43,225
1129340,0.736,0,1,0,4,0.343,47,226
1129340,0.677,0,0,1,5,4.051,52,227
1129340,0.597,1,1,1,5,0.625,52,228
1129340,6.961,0,1,0,6,0.194,47,229
1129340,1.201,0,0,1,5,0.595,52,230
1129340,1.336,1,1,1,5,0.394,52,231
1129340,1.36,0,0,1,5,0.206,47,232
1129340,0.915,0,1,0,5,0.723,47,233
1129340,1.49,1,0,0,4,0.847,52,234
1129340,0.731,0,0,1,4,0.417,57,235
1129340,1.384,1,1,1,4,0.252,57,236
1129340,0.547,0,0,1,4,0.329,52,237
1129340,1.789,1,1,1,4,0.373,52,238
1129340,1.049,1,1,1,4,0.294,47,239
1129340,0.716,1,1,1,4,0.356,47,240
1129340,1.572,0,1,0,4,0.262,43,241
1129340,0.95,0,0,1,4,0.234,47,242
1129340,0.902,0,0,1,6,1.287,47,243
1129340,1.511,0,0,1,5,0.429,43,244
1129340,1.571,1,1,1,4,0.624,43,245
1129340,1.153,0,1,0,5,0.635,38,246
1129340,0.978,0,0,1,5,0.32,43,247
1129340,1.051,1,1,1,5,1.444,43,248
1129340,1.671,0,1,0,5,0.64,38,249
1129340,1.045,1,1,1,5,0.363,43,250
1129340,0.338,1,0,0,5,1.017,43,251
1129340,27.519,1,1,1,5,2.996,47,252
1129340,1.229,1,0,0,5,0.266,47,253
1129340,0.846,1,1,1,5,0.341,52,254
1129340,0.934,0,0,1,5,0.25,52,255
1129340,1.365,0,0,1,5,0.263,47,256
1129340,0.852,1,1,1,5,0.399,47,257
1129340,1.504,0,0,1,5,0.326,43,258
1129340,1.404,0,1,0,5,0.418,43,259
1129340,3.905,1,0,0,5,0.308,47,260
1129340,2.603,1,0,0,5,1.058,52,261
1129340,12.836,0,0,1,5,0.417,57,262
1129340,16.11,0,0,1,5,0.739,57,263
1129340,5.395,0,1,0,5,0.247,52,264
1129340,0.859,0,1,0,5,0.247,57,265
1129340,1.159,0,0,1,5,0.276,63,266
1129340,1.174,0,1,0,5,0.278,63,267
1129340,0.753,0,0,1,5,0.26,70,268
1129340,1.781,0,1,0,5,0.391,70,269
1129340,0.528,0,0,1,5,0.347,77,270
1129340,0.475,0,0,1,5,0.252,77,271
1129340,0.711,0,1,0,5,0.277,70,272
1129340,0.49,0,0,1,5,0.419,77,273
1129340,1.821,1,1,1,5,1.305,77,274
1129340,1.58,1,1,1,5,0.844,70,275
1129340,1.12,0,1,0,4,0.203,70,276
1129340,1.146,0,0,1,5,2.087,77,277
1129340,0.476,0,1,0,2,1.256,77,278
1129340,0.624,1,1,1,4,0.641,86,279
1129340,0.556,0,0,1,5,0.486,86,280
1129340,0.533,0,1,0,5,0.536,77,281
1129340,0.512,0,0,1,5,0.691,86,282
1129340,0.578,1,1,1,6,0.872,86,283
1129340,0.544,0,0,1,4,0.422,77,284
1129340,0.39,0,0,1,5,0.42,77,285
1129340,0.534,1,1,1,5,0.639,70,286
1129340,0.63,0,0,1,5,0.472,70,287
1129340,0.59,1,1,1,6,0.911,63,288
1129340,0.591,1,1,1,4,0.459,63,289
1129340,0.56,1,1,1,4,0.78,57,290
1129340,0.527,1,1,1,5,0.492,57,291
1129340,0.55,0,0,1,5,0.446,52,292
1129340,0.489,0,0,1,6,0.679,52,293
1129340,0.482,0,0,1,4,0.439,47,294
1129340,0.433,1,1,1,5,0.637,47,295
1129340,0.604,1,1,1,4,0.586,43,296
1129340,0.477,0,0,1,5,0.483,43,297
1129340,0.693,1,1,1,4,0.381,38,298
1129340,0.668,1,1,1,4,0.457,38,299
1129340,0.574,1,1,1,6,0.987,35,300
1129340,0.669,0,0,1,4,0.402,35,301
1129340,0.607,0,1,0,4,0.43,32,302
1129340,0.723,1,0,0,5,0.395,35,303
1129340,0.606,1,1,1,4,0.469,38,304
1129340,0.635,0,0,1,5,0.51,38,305
1129340,0.685,1,0,0,4,0.488,35,306
1129340,0.665,1,1,1,4,0.517,38,307
1129340,0.6,0,0,1,4,0.671,38,308
1129340,0.502,0,1,0,4,0.39,35,309
1129340,0.709,1,0,0,4,0.562,38,310
1129340,1.04,0,0,1,4,0.395,43,311
1129340,0.68,1,0,0,4,0.482,43,312
1129340,0.601,0,0,1,4,0.449,47,313
1129340,0.543,1,1,1,4,0.821,47,314
1129340,0.954,0,1,0,4,0.372,43,315
1129340,0.507,0,0,1,4,0.414,47,316
1129340,0.534,1,1,1,4,0.479,47,317
1129340,0.505,0,0,1,4,0.35,43,318
1129340,0.604,1,1,1,4,0.404,43,319
1129340,0.57,0,0,1,4,0.401,38,320
1129340,0.509,0,0,1,4,0.319,38,321
1129340,0.764,1,1,1,5,0.752,35,322
1129340,0.579,0,0,1,4,0.459,35,323
1129340,0.606,1,1,1,4,0.415,32,324
1129340,0.575,0,1,0,4,0.416,32,325
1129340,0.489,1,1,1,4,0.399,35,326
1129340,1.08,1,0,0,5,0.354,35,327
1129340,0.771,1,1,1,5,0.583,38,328
1129340,0.809,0,1,0,5,0.721,38,329
1129340,0.466,1,0,0,4,0.905,43,330
1129340,0.927,1,1,1,4,0.368,47,331
1129340,1.461,1,0,0,5,0.527,47,332
1129340,6.677,0,1,0,4,0.669,52,333
1129340,0.929,0,0,1,4,0.465,57,334
1129340,0.618,0,0,1,4,0.456,57,335
1129340,0.204,0,1,0,4,0.481,52,336
1129340,0.956,0,0,1,4,0.43,57,337
1129340,0.66,1,1,1,4,0.598,57,338
1129340,0.855,1,1,1,4,1.968,52,339
1129340,0.511,1,1,1,4,0.587,52,340
1129340,0.834,0,1,0,4,0.348,47,341
1129340,0.834,0,0,1,4,0.425,52,342
1129340,0.467,0,0,1,4,0.43,52,343
1129340,0.666,1,0,0,4,0.511,47,344
1129340,0.519,1,1,1,4,0.514,52,345
1129340,0.615,1,1,1,4,0.521,52,346
1129340,0.553,1,0,0,4,0.617,47,347
1129340,0.444,1,1,1,4,0.336,52,348
1129340,0.566,0,1,0,4,0.368,52,349
1129340,0.774,1,1,1,4,0.574,57,350
1129340,0.748,0,0,1,4,0.386,57,351
1129340,0.316,1,1,1,4,0.444,52,352
1129340,0.649,1,0,0,4,0.417,52,353
1129340,0.558,1,1,1,4,0.541,57,354
1129340,0.356,0,0,1,4,0.42,57,355
1129340,2.735,0,0,1,4,1.221,52,356
1129340,0.587,1,1,1,4,0.383,52,357
1129340,1.718,1,0,0,4,0.901,47,358
1129340,0.585,1,1,1,4,0.361,52,359
1129340,2.91,0,0,1,4,0.755,52,360
1129340,0.685,0,0,1,4,0.472,47,361
1129340,0.781,0,0,1,4,0.414,47,362
1129340,33.799,0,0,1,6,2.208,43,363
1129340,1.765,1,1,1,5,1.039,43,364
1129340,2.515,1,1,1,5,0.455,38,365
1129340,0.498,0,0,1,5,0.492,38,366
1129340,0.681,0,1,0,4,0.432,35,367
1129340,0.442,0,0,1,4,0.403,38,368
1129340,1.006,1,1,1,4,0.507,38,369
1129340,0.435,0,0,1,4,0.286,35,370
1129340,0.46,0,0,1,4,0.308,35,371
1129340,0.482,0,1,0,4,0.293,32,372
1129340,0.432,0,0,1,4,0.307,35,373
1129340,0.569,1,1,1,4,0.297,35,374
1129340,0.436,0,1,0,4,0.327,32,375
1129340,0.734,1,1,1,4,0.444,35,376
1129340,0.476,1,0,0,4,0.397,35,377
1129340,0.616,1,1,1,4,0.35,38,378
1129340,0.206,1,1,1,4,0.566,38,379
1129340,0.521,1,0,0,4,0.367,35,380
1129340,0.632,0,1,0,4,0.376,38,381
1129340,0.51,0,0,1,4,1.115,43,382
1129340,0.656,0,1,0,4,0.742,43,383
1129340,1.138,0,0,1,4,0.294,47,384
1129340,0.866,0,0,1,4,0.458,47,385
1129340,0.96,0,1,0,4,0.547,43,386
1129340,1.084,0,0,1,4,0.419,47,387
1129340,0.784,1,1,1,4,0.435,47,388
1129340,1.012,0,1,0,4,0.447,43,389
1129340,0.745,1,1,1,4,0.562,47,390
1129340,0.937,1,1,1,4,0.541,47,391
1129340,0.474,0,0,1,4,0.417,43,392
1129340,0.51,0,0,1,4,0.479,43,393
1129340,0.519,0,0,1,4,0.502,38,394
1129340,0.666,1,1,1,4,0.428,38,395
1129340,7,0,1,0,4,0.76,35,396
1129340,3.59,0,0,1,5,0.636,38,397
1129340,1.556,1,1,1,5,0.494,38,398
1129340,0.907,0,1,0,5,0.306,35,399
1129340,0.945,0,1,0,5,0.309,38,400
1129340,0.857,0,0,1,4,0.287,43,401
1129340,1.342,1,1,1,4,0.345,43,402
1129340,0.682,0,0,1,4,0.319,38,403
1129340,0.663,0,1,0,4,0.302,38,404
1129340,0.986,0,0,1,4,0.239,43,405
1129340,1.128,0,0,1,4,0.401,43,406
1129340,1.726,1,1,1,4,0.301,38,407
1129340,0.889,0,0,1,5,0.267,38,408
1129340,5.002,0,1,0,4,1.253,35,409
1129340,0.674,0,0,1,4,0.336,38,410
1129340,0.603,0,0,1,4,0.427,38,411
1129340,0.607,0,0,1,4,0.398,35,412
1129340,0.698,0,0,1,4,0.255,35,413
1129340,1.008,0,1,0,4,0.336,32,414
1129340,3.356,0,1,0,5,0.378,35,415
1129340,2.741,0,0,1,5,1.054,38,416
1129340,2.559,0,1,0,5,1.151,38,417
1129340,0.888,0,0,1,5,0.516,43,418
1129340,0.707,0,1,0,5,0.413,43,419
1129340,1.101,0,0,1,5,0.447,47,420
1129340,0.89,0,0,1,5,0.833,47,421
1129340,1.314,1,1,1,6,1.103,43,422
1129340,0.9,0,0,1,6,0.391,43,423
1129340,0.471,0,1,0,6,0.346,38,424
1129340,0.72,0,1,0,6,0.313,43,425
1129340,0.869,0,1,0,6,0.349,47,426
1129340,0.446,0,0,1,6,0.319,52,427
1129340,0.51,0,1,0,6,0.394,52,428
1129340,0.672,0,1,0,6,0.338,57,429
1129340,0.464,0,0,1,6,0.312,63,430
1129340,0.446,0,1,0,6,0.356,63,431
1129340,0.428,0,0,1,6,0.339,70,432
1129340,1.206,1,1,1,6,0.406,70,433
1129340,0.552,0,0,1,6,0.37,63,434
1129340,0.444,0,0,1,6,0.285,63,435
1129340,0.526,0,1,0,6,0.31,57,436
1129340,0.459,0,0,1,6,0.265,63,437
1129340,0.672,0,1,0,6,0.257,63,438
1129340,1.074,1,1,1,5,0.506,70,439
1129340,0.651,1,1,1,5,0.306,70,440
1129340,0.028,1,1,1,5,0.786,63,441
1129340,0.854,0,0,1,5,0.238,63,442
1129340,0.789,0,0,1,5,0.237,57,443
1129340,0.6,0,0,1,5,0.253,57,444
1129340,1.845,0,1,0,5,0.248,52,445
1129340,0.726,0,1,0,5,0.279,57,446
1129340,0.526,0,0,1,5,0.278,63,447
1129340,0.674,0,1,0,5,0.283,63,448
1129340,1.597,1,1,1,5,0.341,70,449
1129340,1.103,1,1,1,5,0.253,70,450
1129340,0.866,0,0,1,5,0.316,63,451
1129340,0.905,1,1,1,5,0.372,63,452
1129340,0.839,0,0,1,5,0.265,57,453
1129340,0.688,1,1,1,5,0.368,57,454
1129340,0.689,0,0,1,5,0.337,52,455
1129340,0.821,0,0,1,5,0.266,52,456
1129340,0.875,1,1,1,5,0.343,47,457
1129340,0.773,0,0,1,5,0.341,47,458
1129340,0.679,1,1,1,5,0.312,43,459
1129340,0.947,0,0,1,5,0.335,43,460
1129340,0.785,0,0,1,5,0.32,38,461
1129340,0.549,0,0,1,5,0.346,38,462
1129340,0.514,0,0,1,5,0.326,35,463
1129340,0.936,1,1,1,5,0.321,35,464
1129340,0.805,0,1,0,5,0.275,32,465
1129340,0.648,0,0,1,5,0.325,35,466
1129340,1.147,1,1,1,5,1.059,35,467
1129340,0.824,0,0,1,5,0.428,32,468
1129340,0.867,1,1,1,5,0.299,32,469
1129340,0.87,0,0,1,5,0.284,29,470
1129340,0.622,0,0,1,5,0.289,29,471
1129340,0.634,0,1,0,5,0.247,26,472
1129340,0.66,0,0,1,5,0.253,29,473
1129340,0.745,0,1,0,5,0.26,29,474
1129340,1.065,1,1,1,5,0.361,32,475
1129340,1.064,0,1,0,5,0.314,32,476
1129340,0.573,0,0,1,5,0.34,35,477
1129340,0.796,0,1,0,5,0.233,35,478
1129340,0.567,1,1,1,5,0.427,38,479
1129340,1.973,1,0,0,5,0.391,38,480
1129340,1.048,1,1,1,5,0.375,43,481
1129340,0.698,0,0,1,6,0.393,43,482
1129340,1.312,1,1,1,6,0.319,38,483
1129340,0.401,0,0,1,6,0.252,38,484
1129340,0.945,0,0,1,6,0.257,35,485
1129340,0.994,0,1,0,6,0.233,35,486
1129340,0.615,0,0,1,6,0.233,38,487
1129340,0.946,1,1,1,5,0.382,38,488
1129340,0.803,1,1,1,5,0.307,35,489
1129340,0.83,0,1,0,5,0.214,35,490
1129340,0.631,1,1,1,5,0.425,38,491
1129340,0.998,0,0,1,5,0.195,38,492
1129340,0.757,0,0,1,5,0.229,35,493
1129340,0.666,0,0,1,5,0.167,35,494
1129340,0.662,1,1,1,5,0.299,32,495
1129340,0.602,1,1,1,5,0.357,32,496
1129340,0.937,0,0,1,5,0.249,29,497
1129340,0.89,0,1,0,5,0.23,29,498
1129340,0.787,1,1,1,5,0.289,32,499
1129340,0.73,1,1,1,5,0.293,32,500
1129340,0.856,0,0,1,5,0.349,29,501
1129340,1.027,1,1,1,4,0.661,29,502
1129340,0.78,0,0,1,5,0.647,26,503
1129340,0.769,1,1,1,6,0.508,26,504
1129340,0.781,1,0,0,6,2.489,23,505
1129340,0.8,0,0,1,4,0.624,26,506
1129340,1.168,1,1,1,4,0.386,26,507
1129340,0.678,0,0,1,5,0.351,23,508
1129340,0.72,1,1,1,3,2.356,23,509
1129340,0.634,0,0,1,6,0.579,21,510
1129340,0.921,0,0,1,5,0.364,21,511
1129340,0.663,0,0,1,4,0.619,19,512
1129340,1.084,1,0,0,4,0.468,19,513
1129340,0.598,0,1,0,4,0.323,21,514
1129340,1.462,1,1,1,4,0.54,23,515
1129340,0.649,0,0,1,5,0.32,23,516
1129340,1.662,0,1,0,4,0.285,21,517
1129340,0.583,0,0,1,4,0.298,23,518
1129340,0.507,0,1,0,5,0.482,23,519
1129340,0.825,0,0,1,4,0.376,26,520
1129340,0.807,0,0,1,4,0.417,26,521
1129340,0.596,0,1,0,4,0.28,23,522
1129340,0.602,0,0,1,4,0.334,26,523
1129340,0.599,0,1,0,4,0.383,26,524
1129340,0.864,0,1,0,4,0.344,29,525
1129340,0.834,0,1,0,4,0.553,32,526
1239658,1.866,1,1,1,3,3.397,86,27
1239658,1.877,0,0,1,5,2.643,77,28
1239658,1.647,1,0,0,4,3.953,77,29
1239658,2.046,0,0,1,5,2.051,86,30
1239658,1.159,0,0,1,5,1.211,86,31
1239658,0.915,1,1,1,1,3.811,77,32
1239658,2.289,1,1,1,2,1.723,77,33
1239658,0.847,0,0,1,4,2.818,70,34
1239658,1.967,0,0,1,6,3.238,70,35
1239658,1.42,1,1,1,4,2.249,63,36
1239658,1.111,0,0,1,4,1.82,63,37
1239658,1.249,1,1,1,6,2.243,57,38
1239658,1.199,1,1,1,4,2.062,57,39
1239658,0.971,1,1,1,3,2.528,52,40
1239658,0.703,1,1,1,2,1.304,52,41
1239658,0.863,1,1,1,5,2.033,47,42
1239658,1.146,0,0,1,6,1.235,47,43
1239658,0.605,0,0,1,6,1.005,43,44
1239658,1.402,1,1,1,2,1.37,43,45
1239658,0.814,1,1,1,3,1.611,38,46
1239658,1.108,0,0,1,5,0.971,38,47
1239658,0.778,0,0,1,5,1.011,35,48
1239658,1.221,0,0,1,4,1.427,35,49
1239658,1.349,0,0,1,4,0.341,32,50
1239658,0.939,0,0,1,4,0.412,32,51
1239658,0.807,0,0,1,5,1.602,29,52
1239658,1.426,0,0,1,4,0.963,29,53
1239658,1.025,1,0,0,2,0.697,26,54
1239658,0.855,0,1,0,5,0.67,29,55
1239658,0.946,1,1,1,5,1.143,32,56
1239658,1.379,0,1,0,6,0.727,32,57
1239658,1.446,0,0,1,4,0.972,35,58
1239658,1.255,1,1,1,5,0.831,35,59
1239658,0.921,1,1,1,5,0.925,32,60
1239658,1.797,1,1,1,5,1.727,32,61
1239658,0.984,1,1,1,2,2.057,29,62
1239658,1.157,1,1,1,3,0.907,29,63
1239658,1.081,0,0,1,5,0.677,26,64
1239658,0.942,0,0,1,4,0.464,26,65
1239658,0.833,1,0,0,2,0.592,23,66
1239658,0.779,0,0,1,6,0.954,26,67
1239658,0.978,0,1,0,4,0.717,26,68
1239658,1.199,1,1,1,2,2.201,29,69
1239658,1.465,0,0,1,4,0.792,29,70
1239658,1.25,0,0,1,5,0.642,26,71
1239658,1.063,1,1,1,5,1.019,26,72
1239658,1.356,1,0,0,2,0.752,23,73
1239658,1.279,1,1,1,5,0.859,26,74
1239658,0.905,1,1,1,6,1.48,26,75
1239658,1.318,1,1,1,2,0.713,23,76
1239658,0.805,1,1,1,5,1.168,23,77
1239658,1.223,1,0,0,5,0.815,21,78
1239658,0.802,0,0,1,6,1.573,23,79
1239658,1.657,0,0,1,4,0.243,23,80
1239658,1.496,1,0,0,5,1.227,21,81
1239658,1.7,1,1,1,5,0.91,23,82
1239658,2.622,1,1,1,4,0.271,23,83
1239658,1.524,0,0,1,5,0.831,21,84
1239658,1.157,0,0,1,3,2.542,21,85
1239658,1.084,0,1,0,3,0.548,19,86
1239658,1.835,1,0,0,5,0.699,21,87
1239658,1.698,1,1,1,4,0.78,23,88
1239658,0.851,1,1,1,4,1.294,23,89
1239658,1.41,1,1,1,4,1.285,21,90
1239658,0.875,1,1,1,2,1.732,21,91
1239658,0.763,1,1,1,5,0.889,19,92
1239658,0.644,0,0,1,5,0.72,19,93
1239658,0.75,1,0,0,2,0.719,17,94
1239658,0.855,0,1,0,5,0.634,19,95
1239658,3.011,0,1,0,5,0.803,21,96
1239658,2.434,0,0,1,2,1.664,23,97
1239658,1.148,0,0,1,1,1.492,23,98
1239658,0.819,0,0,1,6,0.83,21,99
1239658,1.529,1,0,0,1,3.544,21,100
1239658,1.603,0,0,1,6,1.062,23,101
1239658,0.88,0,0,1,6,0.383,23,102
1239658,0.548,0,0,1,5,0.468,21,103
1239658,0.64,0,0,1,4,0.863,21,104
1239658,0.732,0,1,0,4,0.877,19,105
1239658,2.16,1,1,1,2,1.452,21,106
1239658,0.832,1,1,1,1,0.6,21,107
1239658,0.729,0,0,1,5,1.401,19,108
1239658,0.699,0,1,0,6,0.338,19,109
1239658,0.587,0,1,0,6,0.317,21,110
1239658,0.687,0,1,0,4,0.592,23,111
1239658,1.879,0,1,0,4,1.23,26,112
1239658,1.196,1,1,1,1,0.418,29,113
1239658,1.117,1,0,0,4,2.239,29,114
1239658,1.278,0,0,1,4,0.739,32,115
1239658,0.853,0,0,1,2,1.09,32,116
1239658,0.773,0,0,1,4,0.877,29,117
1239658,1.186,1,1,1,1,1.008,29,118
1239658,0.806,0,1,0,5,0.542,26,119
1239658,0.93,0,0,1,5,0.366,29,120
1239658,1.054,1,0,0,1,0.444,29,121
1239658,0.613,0,1,0,5,0.468,32,122
1239658,0.972,1,0,0,2,0.276,35,123
1239658,0.553,0,1,0,5,0.401,38,124
1239658,0.742,1,1,1,4,1.076,43,125
1239658,0.767,0,1,0,4,0.42,43,126
1239658,0.837,1,1,1,2,0.695,47,127
1239658,1.015,0,0,1,4,1.468,47,128
1239658,1.326,0,0,1,2,0.842,43,129
1239658,0.805,0,0,1,5,0.946,43,130
1239658,1,0,0,1,4,0.509,38,131
1239658,1.21,0,1,0,4,0.382,38,132
1239658,1.163,1,1,1,5,0.679,43,133
1239658,0.783,0,0,1,5,0.414,43,134
1239658,1.164,0,0,1,5,0.374,38,135
1239658,1.321,1,1,1,2,0.298,38,136
1239658,2.062,0,0,1,4,0.901,35,137
1239658,0.72,1,1,1,5,1.143,35,138
1239658,0.95,1,1,1,5,0.757,32,139
1239658,0.867,0,1,0,4,0.261,32,140
1239658,1.166,1,1,1,2,0.492,35,141
1239658,0.386,0,1,0,5,0.224,35,142
1239658,0.988,0,0,1,4,0.241,38,143
1239658,1.764,1,0,0,2,0.466,38,144
1239658,1.04,0,1,0,5,0.603,43,145
1239658,0.58,1,1,1,5,1.038,47,146
1239658,1.683,0,0,1,2,0.967,47,147
1239658,0.929,0,0,1,3,1.133,43,148
1239658,0.73,0,0,1,5,0.584,43,149
1239658,0.906,1,0,0,5,1.006,38,150
1239658,0.854,0,0,1,4,1.029,43,151
1239658,1.43,0,0,1,6,0.557,43,152
1239658,1.65,1,0,0,4,1.476,38,153
1239658,1.629,0,0,1,2,0.617,43,154
1239658,1.019,1,1,1,3,1.026,43,155
1239658,1.532,1,1,1,5,0.318,38,156
1239658,1.054,1,1,1,4,1.663,38,157
1239658,1.145,1,0,0,5,0.731,35,158
1239658,2.009,0,1,0,4,0.471,38,159
1239658,1.071,1,1,1,2,0.412,43,160
1239658,1.067,1,1,1,1,0.545,43,161
1239658,1.067,1,1,1,4,1.044,38,162
1239658,0.865,0,1,0,5,0.517,38,163
1239658,1.352,0,0,1,4,0.445,43,164
1239658,0.848,1,0,0,2,0.416,43,165
1239658,0.964,0,0,1,5,0.75,47,166
1239658,0.779,0,0,1,2,0.716,47,167
1239658,0.955,0,1,0,4,1.464,43,168
1239658,1.124,0,1,0,3,1.119,47,169
1239658,2.09,0,0,1,4,0.927,52,170
1239658,1.02,0,0,1,5,0.659,52,171
1239658,0.989,0,1,0,4,0.515,47,172
1239658,0.942,1,0,0,2,0.471,52,173
1239658,1.161,1,1,1,5,1.014,57,174
1239658,0.872,1,1,1,2,0.47,57,175
1239658,1.08,1,1,1,3,1.025,52,176
1239658,0.964,1,1,1,4,0.983,52,177
1239658,0.87,1,0,0,5,0.346,47,178
1239658,0.893,0,0,1,5,2.404,52,179
1239658,1.234,0,0,1,5,0.429,52,180
1239658,1.18,0,0,1,2,1.027,47,181
1239658,1.141,1,1,1,4,2.987,47,182
1239658,1.324,1,1,1,4,1.854,43,183
1239658,0.795,0,0,1,5,1.117,43,184
1239658,0.812,0,0,1,5,0.282,38,185
1239658,0.771,1,1,1,5,0.951,38,186
1239658,1.311,1,0,0,1,2.201,35,187
1239658,0.92,1,1,1,2,1.441,38,188
1239658,1.609,1,1,1,5,0.299,38,189
1239658,0.931,1,1,1,4,0.488,35,190
1239658,0.79,1,1,1,4,0.533,35,191
1239658,0.776,1,1,1,2,0.558,32,192
1239658,1.04,1,0,0,2,1.215,32,193
1239658,0.734,0,0,1,5,0.616,35,194
1239658,1.175,1,1,1,2,0.646,35,195
1239658,3.589,1,1,1,1,1.56,32,196
1239658,0.946,0,0,1,5,0.744,32,197
1239658,1.127,0,0,1,6,0.445,29,198
1239658,0.937,0,0,1,5,0.34,29,199
1239658,1.19,0,0,1,4,0.379,26,200
1239658,1.295,0,0,1,4,0.292,26,201
1239658,1.004,0,0,1,4,0.296,23,202
1239658,1.32,0,0,1,5,0.284,23,203
1239658,1.139,0,0,1,5,0.242,21,204
1239658,1.957,1,1,1,4,1.238,21,205
1239658,0.985,1,1,1,2,0.362,19,206
1239658,1.227,1,1,1,5,0.843,19,207
1239658,1.36,1,0,0,5,0.678,17,208
1239658,1.261,1,1,1,4,0.483,19,209
1239658,0.86,1,1,1,4,0.559,19,210
1239658,0.936,1,1,1,5,0.928,17,211
1239658,0.958,1,1,1,5,0.631,17,212
1239658,1.05,1,1,1,4,0.525,16,213
1239658,1.483,1,0,0,3,1.695,16,214
1239658,1.125,0,0,1,5,0.28,17,215
1239658,1.063,0,0,1,4,0.325,17,216
1239658,0.845,0,0,1,3,1.331,16,217
1239658,0.995,0,1,0,3,1.085,16,218
1239658,1.745,1,1,1,5,0.697,17,219
1239658,1.016,0,0,1,4,0.366,17,220
1239658,0.884,0,0,1,6,0.461,16,221
1239658,0.622,0,1,0,6,0.547,16,222
1239658,0.997,1,0,0,4,1.815,17,223
1239658,1.08,0,1,0,4,0.398,19,224
1239658,0.616,0,1,0,2,3.571,21,225
1239658,1.997,0,1,0,4,0.424,23,226
1239658,0.934,1,1,1,2,0.943,26,227
1239658,1.168,0,0,1,2,0.932,26,228
1239658,0.83,1,0,0,5,0.735,23,229
1239658,1.36,0,0,1,4,0.426,26,230
1239658,1.28,0,0,1,4,0.39,26,231
1239658,0.706,1,1,1,2,0.603,23,232
1239658,0.53,0,1,0,4,0.412,23,233
1239658,1.17,0,0,1,4,0.297,26,234
1239658,1.44,0,0,1,4,0.208,26,235
1239658,0.809,0,1,0,6,0.599,23,236
1239658,0.77,0,0,1,6,0.278,26,237
1239658,1.437,1,1,1,6,0.217,26,238
1239658,1.037,1,1,1,6,0.223,23,239
1239658,1.394,1,1,1,4,0.566,23,240
1239658,0.979,0,1,0,4,0.259,21,241
1239658,0.911,1,1,1,2,0.561,23,242
1239658,0.903,0,0,1,4,0.25,23,243
1239658,0.743,1,0,0,2,0.48,21,244
1239658,0.891,1,1,1,2,0.332,23,245
1239658,1.493,1,1,1,3,0.493,23,246
1239658,0.9,0,0,1,5,0.285,21,247
1239658,0.978,0,0,1,4,0.205,21,248
1239658,0.825,0,0,1,4,0.236,19,249
1239658,0.334,1,0,0,2,1.764,19,250
1239658,0.473,0,0,1,5,1.128,21,251
1239658,0.556,1,0,0,2,0.368,21,252
1239658,0.331,0,0,1,4,1.28,23,253
1239658,0.511,1,0,0,5,1.311,23,254
1239658,0.832,1,1,1,5,0.801,26,255
1239658,1.013,1,1,1,5,0.921,26,256
1239658,0.904,1,1,1,2,0.681,23,257
1239658,0.827,0,0,1,5,0.27,23,258
1239658,0.704,0,1,0,4,0.696,21,259
1239658,0.924,0,1,0,4,0.383,23,260
1239658,0.944,1,1,1,4,1.291,26,261
1239658,1.013,1,1,1,2,0.751,26,262
1239658,0.824,0,1,0,5,0.349,23,263
1239658,0.631,1,0,0,2,0.958,26,264
1239658,0.789,0,0,1,6,0.893,29,265
1239658,0.486,0,0,1,4,0.961,29,266
1239658,1.175,0,0,1,4,0.715,26,267
1239658,0.68,0,1,0,4,0.581,26,268
1239658,0.783,0,1,0,4,0.278,29,269
1239658,0.991,1,0,0,4,0.84,32,270
1239658,0.808,0,0,1,4,0.276,35,271
1239658,1.365,1,1,1,4,0.473,35,272
1239658,1.023,0,0,1,2,1.065,32,273
1239658,0.641,1,1,1,5,0.835,32,274
1239658,0.85,1,1,1,5,0.354,29,275
1239658,1.006,1,1,1,5,0.192,29,276
1239658,0.687,1,1,1,4,0.706,26,277
1239658,0.754,1,0,0,5,0.284,26,278
1239658,1.132,0,0,1,2,1.389,29,279
1239658,0.699,0,0,1,5,0.405,29,280
1239658,0.541,0,0,1,5,0.411,26,281
1239658,0.712,0,1,0,5,0.215,26,282
1239658,0.805,1,1,1,2,0.643,29,283
1239658,0.797,1,0,0,5,0.674,29,284
1239658,0.29,0,0,1,2,1.022,32,285
1239658,0.341,1,1,1,6,0.805,32,286
1239658,0.488,1,0,0,4,0.74,29,287
1239658,0.329,0,1,0,1,2.086,32,288
1239658,0.872,1,1,1,6,0.665,35,289
1239658,0.564,1,1,1,4,0.659,35,290
1239658,0.47,0,1,0,2,0.989,32,291
1239658,0.524,1,1,1,6,0.667,35,292
1239658,0.764,1,0,0,4,0.57,35,293
1239658,0.799,1,0,0,4,0.743,38,294
1239658,0.35,0,1,0,2,1.02,43,295
1239658,0.493,1,1,1,6,0.603,47,296
1239658,0.678,0,0,1,4,0.9,47,297
1239658,0.847,0,0,1,5,1.003,43,298
1239658,0.919,0,0,1,4,0.728,43,299
1239658,0.96,1,0,0,2,1.69,38,300
1239658,1.304,0,0,1,4,0.331,43,301
1239658,0.858,1,0,0,3,1.317,43,302
1239658,0.745,0,0,1,4,0.301,47,303
1239658,1.109,0,0,1,5,0.7,47,304
1239658,0.869,1,1,1,4,0.97,43,305
1239658,0.688,1,1,1,5,1.001,43,306
1239658,0.653,1,1,1,5,0.548,38,307
1239658,0.859,0,0,1,4,0.649,38,308
1239658,0.702,1,1,1,6,0.894,35,309
1239658,0.631,1,1,1,6,0.426,35,310
1239658,0.363,1,1,1,4,1.198,32,311
1239658,0.328,0,1,0,2,0.978,32,312
1239658,0.543,1,1,1,5,0.472,35,313
1239658,0.372,0,0,1,2,0.963,35,314
1239658,0.705,0,0,1,5,0.568,32,315
1239658,0.413,0,0,1,4,0.689,32,316
1239658,1.536,0,0,1,3,0.821,29,317
1239658,0.862,1,1,1,5,0.542,29,318
1239658,0.861,0,1,0,4,0.263,26,319
1239658,0.761,0,0,1,4,0.482,29,320
1239658,0.457,0,0,1,5,0.7,29,321
1239658,0.399,0,1,0,3,1.429,26,322
1239658,0.791,0,0,1,5,0.601,29,323
1239658,0.825,0,1,0,4,0.221,29,324
1239658,0.565,1,1,1,6,0.659,32,325
1239658,1.093,1,1,1,6,0.373,32,326
1239658,0.671,1,1,1,4,1.537,29,327
1239658,0.86,0,0,1,5,0.352,29,328
1239658,0.844,0,0,1,5,0.279,26,329
1239658,0.526,1,0,0,2,0.52,26,330
1239658,0.596,1,0,0,5,0.352,29,331
1239658,0.658,0,1,0,4,0.32,32,332
1239658,0.399,1,1,1,2,0.513,35,333
1239658,0.698,1,0,0,2,1.357,35,334
1239658,0.508,1,0,0,3,1.062,38,335
1239658,0.433,0,1,0,3,1.306,43,336
1239658,1.099,0,0,1,5,0.271,47,337
1239658,0.811,1,1,1,5,0.742,47,338
1239658,0.66,1,1,1,5,0.608,43,339
1239658,0.472,0,1,0,3,1.164,43,340
1239658,0.839,1,1,1,5,0.568,47,341
1239658,0.676,1,1,1,5,0.678,47,342
1239658,1.033,0,0,1,4,0.351,43,343
1239658,0.479,1,0,0,2,0.868,43,344
1239658,0.683,0,1,0,4,0.538,47,345
1239658,0.536,1,1,1,2,0.683,52,346
1239658,0.708,0,0,1,4,0.661,52,347
1239658,0.665,1,0,0,4,0.698,47,348
1239658,0.51,0,0,1,4,0.361,52,349
1239658,0.534,0,0,1,4,0.344,52,350
1239658,0.633,0,0,1,4,0.303,47,351
1239658,0.532,0,0,1,5,0.531,47,352
1239658,0.591,0,0,1,5,0.292,43,353
1239658,0.606,0,0,1,5,0.251,43,354
1239658,0.441,0,1,0,4,0.484,38,355
1239658,0.761,1,1,1,5,1.297,43,356
1239658,0.71,1,1,1,5,0.244,43,357
1239658,0.896,1,0,0,6,0.266,38,358
1239658,0.695,1,1,1,6,0.479,43,359
1239658,0.753,1,1,1,6,0.707,43,360
1239658,0.562,1,1,1,6,1.271,38,361
1239658,0.945,1,1,1,4,0.412,38,362
1239658,0.867,1,1,1,4,0.522,35,363
1239658,0.704,1,0,0,5,0.384,35,364
1239658,0.686,1,0,0,5,0.354,38,365
1239658,0.961,0,0,1,4,0.286,43,366
1239658,0.636,0,0,1,4,0.397,43,367
1239658,0.904,1,1,1,4,1.606,38,368
1239658,0.859,1,1,1,4,0.562,38,369
1239658,0.622,1,0,0,4,0.48,35,370
1239658,0.512,1,0,0,5,0.347,38,371
1239658,0.634,0,1,0,4,0.272,43,372
1239658,0.941,0,0,1,4,0.321,47,373
1239658,2.19,1,1,1,4,0.836,47,374
1239658,1.243,1,1,1,4,0.454,43,375
1239658,0.3,0,1,0,2,0.978,43,376
1239658,0.694,0,1,0,4,2.227,47,377
1239658,0.628,0,0,1,4,0.439,52,378
1239658,0.629,0,0,1,5,0.448,52,379
1239658,0.559,0,0,1,5,0.347,47,380
1239658,0.555,0,0,1,6,0.288,47,381
1239658,0.603,0,1,0,6,0.317,43,382
1239658,0.856,1,1,1,3,1.112,47,383
1239658,0.575,0,0,1,5,0.308,47,384
1239658,0.569,0,0,1,5,0.365,43,385
1239658,0.493,1,1,1,2,0.629,43,386
1239658,0.574,0,0,1,4,0.655,38,387
1239658,0.526,1,1,1,5,0.938,38,388
1239658,0.373,1,1,1,6,0.465,35,389
1239658,0.776,1,1,1,5,0.819,35,390
1239658,0.604,1,1,1,6,0.329,32,391
1239658,0.837,1,1,1,4,0.983,32,392
1239658,0.938,0,0,1,4,0.333,29,393
1239658,0.542,0,0,1,4,0.508,29,394
1239658,0.701,1,1,1,4,0.811,26,395
1239658,0.855,1,1,1,2,0.7,26,396
1239658,1.271,0,0,1,4,0.274,23,397
1239658,0.288,1,0,0,2,0.639,23,398
1239658,0.547,0,0,1,4,0.424,26,399
1239658,0.537,1,0,0,2,0.84,26,400
1239658,0.772,0,0,1,4,0.299,29,401
1239658,0.575,1,0,0,2,0.575,29,402
1239658,0.862,0,0,1,3,0.689,32,403
1239658,0.751,0,0,1,4,0.259,32,404
1239658,0.682,0,1,0,5,0.233,29,405
1239658,0.932,0,1,0,1,1.984,32,406
1239658,0.789,1,1,1,4,0.427,35,407
1239658,0.627,0,0,1,4,0.369,35,408
1239658,1.173,1,1,1,2,0.891,32,409
1239658,0.513,1,1,1,5,0.675,32,410
1239658,0.475,1,1,1,5,0.417,29,411
1239658,1.057,1,1,1,4,1.071,29,412
1239658,0.995,1,1,1,4,0.19,26,413
1239658,0.597,0,0,1,4,0.336,26,414
1239658,0.96,1,0,0,3,0.421,23,415
1239658,1.001,1,0,0,4,2.042,26,416
1239658,0.904,0,0,1,4,0.211,29,417
1239658,0.757,1,1,1,2,0.32,29,418
1239658,0.757,0,1,0,4,0.284,26,419
1239658,0.719,0,0,1,4,0.296,29,420
1239658,0.47,1,0,0,2,0.621,29,421
1239658,0.684,0,1,0,4,0.289,32,422
1239658,1.064,1,0,0,3,0.753,35,423
1239658,0.617,0,1,0,4,0.387,38,424
1239658,0.683,1,1,1,3,0.751,43,425
1239658,0.899,1,1,1,3,0.473,43,426
1239658,0.692,1,1,1,2,1.804,38,427
1239658,0.595,0,0,1,4,0.481,38,428
1239658,0.623,0,0,1,3,0.984,35,429
1239658,0.605,0,0,1,4,0.441,35,430
1239658,0.444,0,0,1,4,0.52,32,431
1239658,0.496,1,1,1,3,0.745,32,432
1239658,0.583,0,1,0,4,0.448,29,433
1239658,0.56,1,0,0,4,1.341,32,434
1239658,0.588,0,0,1,4,0.344,35,435
1239658,0.439,0,1,0,5,0.369,35,436
1239658,0.393,1,0,0,3,0.843,38,437
1239658,0.415,1,1,1,6,0.807,43,438
1239658,0.583,0,1,0,5,0.426,43,439
1239658,0.495,1,1,1,6,0.627,47,440
1239658,0.292,0,1,0,3,1.085,47,441
1239658,1.598,1,1,1,4,0.766,52,442
1239658,0.63,0,0,1,4,0.33,52,443
1239658,0.974,0,0,1,4,0.681,47,444
1239658,0.524,1,1,1,3,0.798,47,445
1239658,0.628,0,1,0,4,0.368,43,446
1239658,0.462,1,0,0,3,0.764,47,447
1239658,0.551,0,0,1,4,0.454,52,448
1239658,0.425,0,0,1,3,1.438,52,449
1239658,0.569,0,0,1,4,0.33,47,450
1239658,1.276,1,0,0,3,0.575,47,451
1239658,1.067,0,0,1,4,1.088,52,452
1239658,0.585,0,0,1,4,0.336,52,453
1239658,0.858,1,0,0,3,0.686,47,454
1239658,0.493,0,1,0,3,0.914,52,455
1239658,0.715,0,1,0,5,0.363,57,456
1239658,0.723,1,1,1,4,0.576,63,457
1239658,0.439,1,0,0,4,0.603,63,458
1239658,0.465,0,1,0,3,1.023,70,459
1239658,0.607,0,1,0,2,1.96,77,460
1239658,0.583,0,1,0,3,1.221,86,461
1239658,0.555,1,1,1,5,0.458,95,462
1239658,0.872,1,1,1,6,0.844,95,463
1239658,1.163,0,0,1,6,0.428,86,464
1239658,0.909,0,0,1,6,0.306,86,465
1239658,0.447,0,0,1,6,0.424,77,466
1239658,0.597,0,0,1,6,0.336,77,467
1239658,0.58,0,1,0,1,1.953,70,468
1239658,0.94,1,1,1,2,0.947,77,469
1239658,0.718,0,0,1,5,0.538,77,470
1239658,0.948,0,0,1,4,0.539,70,471
1239658,0.646,0,1,0,4,0.248,70,472
1239658,0.741,0,0,1,4,0.597,77,473
1239658,0.647,1,1,1,5,0.902,77,474
1239658,0.886,1,1,1,5,0.28,70,475
1239658,1.119,1,1,1,5,0.2,70,476
1239658,0.723,0,1,0,3,1.136,63,477
1239658,0.413,1,0,0,4,0.802,70,478
1239658,0.408,0,0,1,5,0.738,77,479
1239658,0.448,0,0,1,5,0.549,77,480
1239658,0.385,0,0,1,5,0.7,70,481
1239658,0.415,0,1,0,1,1.167,70,482
1239658,0.72,1,1,1,6,0.63,77,483
1239658,0.38,0,0,1,5,0.59,77,484
1239658,0.445,1,0,0,4,0.532,70,485
1239658,0.301,0,1,0,4,0.826,77,486
1239658,0.391,1,0,0,4,0.787,86,487
1239658,0.597,0,1,0,2,0.85,95,488
1239658,0.347,1,1,1,6,0.659,105,489
1239658,0.396,1,1,1,6,0.511,105,490
1239658,0.39,1,1,1,6,0.484,95,491
1239658,0.613,1,1,1,6,0.223,95,492
1239658,0.626,0,0,1,6,0.543,86,493
1239658,0.425,0,0,1,6,0.394,86,494
1239658,0.521,1,1,1,6,0.323,77,495
1239658,0.508,1,1,1,6,0.273,77,496
1239658,0.706,0,0,1,5,0.855,70,497
1239658,0.694,0,0,1,5,0.589,70,498
1239658,1.115,0,0,1,4,0.474,63,499
1239658,0.86,0,0,1,4,0.226,63,500
1239658,0.811,0,0,1,4,0.271,57,501
1239658,1.031,1,0,0,3,0.423,57,502
1239658,0.555,0,0,1,4,0.407,63,503
1239658,0.604,0,0,1,4,0.296,63,504
1239658,0.539,1,1,1,4,0.782,57,505
1239658,0.778,1,1,1,4,0.306,57,506
1239658,0.453,1,1,1,5,0.373,52,507
1239658,1.56,0,0,1,3,0.498,52,508
1239658,0.658,1,1,1,6,0.321,47,509
1239658,1.13,1,1,1,5,0.239,47,510
1239658,0.505,1,1,1,5,0.391,43,511
1239658,0.702,1,1,1,5,0.312,43,512
1239658,0.607,0,1,0,4,0.305,38,513
1239658,2.012,0,0,1,4,0.689,43,514
1239658,0.824,0,0,1,4,0.209,43,515
1239658,0.602,1,0,0,4,0.376,38,516
1239658,0.729,1,0,0,4,0.222,43,517
1239658,1.156,1,1,1,4,0.171,47,518
1239658,0.546,1,1,1,4,0.28,47,519
1239658,0.873,0,0,1,4,0.203,43,520
1239658,0.822,1,0,0,4,0.15,43,521
1239658,0.89,1,1,1,4,0.168,47,522
1239658,0.782,1,0,0,4,0.279,47,523
1239658,0.551,1,1,1,4,0.35,52,524
1239658,0.553,1,1,1,5,0.858,52,525
1239658,0.662,1,1,1,5,0.228,47,526
1373329,0.479,1,1,1,5,1.665,29,27
1373329,0.938,1,0,0,4,2.295,26,28
1373329,0.453,1,0,0,3,1.315,29,29
1373329,0.602,1,1,1,5,0.627,32,30
1373329,0.429,1,0,0,4,1.148,32,31
1373329,0.846,1,1,1,5,0.622,35,32
1373329,0.433,1,0,0,3,0.905,35,33
1373329,0.492,1,1,1,6,0.708,38,34
1373329,0.461,0,0,1,4,1.165,38,35
1373329,0.736,1,0,0,3,0.379,35,36
1373329,0.531,0,0,1,4,0.654,38,37
1373329,0.507,1,1,1,5,0.985,38,38
1373329,0.504,1,1,1,5,0.479,35,39
1373329,0.54,1,1,1,5,0.439,35,40
1373329,0.565,1,0,0,6,0.431,32,41
1373329,0.913,1,0,0,4,0.545,35,42
1373329,0.582,1,1,1,5,0.487,38,43
1373329,0.493,1,1,1,5,0.362,38,44
1373329,1.17,0,0,1,5,0.547,35,45
1373329,0.425,1,1,1,5,0.39,35,46
1373329,0.426,1,1,1,6,0.324,32,47
1373329,0.614,1,0,0,4,0.483,32,48
1373329,0.604,1,1,1,6,0.517,35,49
1373329,0.465,1,1,1,6,0.676,35,50
1373329,0.59,1,1,1,4,0.575,32,51
1373329,0.434,1,1,1,6,0.311,32,52
1373329,0.529,1,1,1,4,0.461,29,53
1373329,0.454,1,1,1,6,0.26,29,54
1373329,0.478,1,0,0,6,0.271,26,55
1373329,0.637,1,0,0,4,0.521,29,56
1373329,0.469,0,0,1,5,0.461,32,57
1373329,0.615,1,0,0,4,0.439,32,58
1373329,0.404,1,0,0,4,0.402,35,59
1373329,0.704,1,0,0,4,0.612,38,60
1373329,0.562,1,1,1,6,0.387,43,61
1373329,0.434,1,0,0,4,0.603,43,62
1373329,0.59,1,1,1,4,0.859,47,63
1373329,0.82,0,0,1,4,1.098,47,64
1373329,0.638,0,0,1,3,0.816,43,65
1373329,0.639,1,1,1,5,0.355,43,66
1373329,0.577,1,0,0,3,0.863,38,67
1373329,0.437,1,1,1,6,0.44,43,68
1373329,0.574,1,0,0,3,0.372,43,69
1373329,0.661,1,1,1,3,0.737,47,70
1373329,0.566,0,0,1,3,0.624,47,71
1373329,0.598,1,0,0,1,0.986,43,72
1373329,0.555,0,0,1,6,0.582,47,73
1373329,0.535,1,1,1,6,0.32,47,74
1373329,0.64,1,1,1,6,0.548,43,75
1373329,0.577,1,1,1,6,0.398,43,76
1373329,0.172,0,1,0,2,2.251,38,77
1373329,0.829,0,0,1,3,0.451,43,78
1373329,0.58,1,0,0,6,0.459,43,79
1373329,0.646,1,1,1,5,0.506,47,80
1373329,0.773,1,0,0,4,1.351,47,81
1373329,0.539,1,1,1,6,0.272,52,82
1373329,0.558,1,0,0,4,0.844,52,83
1373329,0.428,1,1,1,4,0.222,57,84
1373329,0.809,0,0,1,5,0.946,57,85
1373329,0.772,1,0,0,4,0.778,52,86
1373329,0.688,1,0,0,4,0.36,57,87
1373329,0.456,1,1,1,6,0.284,63,88
1373329,0.619,1,1,1,6,0.297,63,89
1373329,0.519,1,1,1,6,0.247,57,90
1373329,0.834,0,0,1,4,0.474,57,91
1373329,0.975,0,0,1,5,0.583,52,92
1373329,0.468,1,1,1,6,0.227,52,93
1373329,0.486,1,1,1,4,0.731,47,94
1373329,0.63,0,0,1,4,0.451,47,95
1373329,0.467,1,1,1,4,0.326,43,96
1373329,0.544,1,1,1,4,0.272,43,97
1373329,0.774,1,0,0,4,0.317,38,98
1373329,0.436,1,1,1,4,0.34,43,99
1373329,0.46,1,1,1,4,0.329,43,100
1373329,0.426,1,1,1,6,0.229,38,101
1373329,0.446,1,1,1,4,0.65,38,102
1373329,0.644,1,1,1,5,0.424,35,103
1373329,0.462,1,1,1,6,0.276,35,104
1373329,0.711,1,0,0,4,0.264,32,105
1373329,0.887,0,0,1,4,0.423,35,106
1373329,0.572,1,0,0,4,0.352,35,107
1373329,0.626,1,0,0,4,0.282,38,108
1373329,0.641,0,0,1,4,0.284,43,109
1373329,0.528,0,0,1,4,0.472,43,110
1373329,0.594,1,1,1,3,0.396,38,111
1373329,0.657,0,0,1,3,0.493,38,112
1373329,0.836,1,1,1,2,0.739,35,113
1373329,0.583,0,0,1,4,0.478,35,114
1373329,0.459,0,0,1,4,0.312,32,115
1373329,0.602,1,1,1,3,0.482,32,116
1373329,0.591,0,0,1,3,0.449,29,117
1373329,0.575,1,1,1,4,0.378,29,118
1373329,0.599,0,0,1,3,0.461,26,119
1373329,0.578,1,1,1,5,0.658,26,120
1373329,0.529,1,0,0,3,0.455,23,121
1373329,0.593,1,0,0,3,0.328,26,122
1373329,0.562,1,0,0,5,0.505,29,123
1373329,0.49,1,1,1,5,0.308,32,124
1373329,0.499,1,1,1,6,0.395,32,125
1373329,0.485,1,1,1,6,0.294,29,126
1373329,0.558,1,1,1,3,0.638,29,127
1373329,0.646,1,0,0,4,0.654,26,128
1373329,0.448,1,0,0,4,0.199,29,129
1373329,0.402,1,1,1,5,0.27,32,130
1373329,0.461,0,0,1,6,0.494,32,131
1373329,0.462,1,1,1,6,0.264,29,132
1373329,0.462,1,0,0,4,0.297,29,133
1373329,0.49,0,1,0,3,0.815,32,134
1373329,0.879,0,0,1,5,0.783,35,135
1373329,0.864,0,0,1,3,0.452,35,136
1373329,0.582,0,0,1,1,1.332,32,137
1373329,0.551,1,1,1,3,0.307,32,138
1373329,0.402,0,1,0,1,1.357,29,139
1373329,0.623,1,1,1,6,0.515,32,140
1373329,0.803,1,0,0,5,0.551,32,141
1373329,0.56,0,0,1,4,0.547,35,142
1373329,0.451,1,1,1,5,0.355,35,143
1373329,0.505,1,1,1,5,0.423,32,144
1373329,0.556,0,0,1,3,0.617,32,145
1373329,0.47,1,1,1,5,0.394,29,146
1373329,0.492,1,1,1,5,0.294,29,147
1373329,1.244,0,0,1,3,0.238,26,148
1373329,0.472,1,1,1,5,0.399,26,149
1373329,0.449,1,1,1,5,0.246,23,150
1373329,0.468,1,1,1,6,0.541,23,151
1373329,0.63,1,1,1,4,0.609,21,152
1373329,0.452,1,1,1,4,0.268,21,153
1373329,0.488,1,1,1,6,0.217,19,154
1373329,0.432,1,0,0,4,0.642,19,155
1373329,0.521,1,0,0,4,0.575,21,156
1373329,0.751,0,0,1,2,1.003,23,157
1373329,0.634,1,0,0,4,0.267,23,158
1373329,0.473,1,0,0,4,0.15,26,159
1373329,0.441,1,0,0,4,0.49,29,160
1373329,0.426,1,1,1,4,0.203,32,161
1373329,0.769,0,0,1,4,0.368,32,162
1373329,0.431,1,1,1,4,0.143,29,163
1373329,0.37,1,0,0,5,0.361,29,164
1373329,0.661,0,0,1,4,0.527,32,165
1373329,0.501,1,1,1,3,0.239,32,166
1373329,0.453,1,0,0,2,0.295,29,167
1373329,0.494,1,1,1,6,0.354,32,168
1373329,0.531,0,0,1,4,0.615,32,169
1373329,0.536,1,1,1,4,0.182,29,170
1373329,0.711,0,0,1,4,0.411,29,171
1373329,0.509,1,0,0,4,0.215,26,172
1373329,0.334,1,0,0,4,0.113,29,173
1373329,0.392,1,1,1,4,0.156,32,174
1373329,0.416,1,1,1,5,0.471,32,175
1373329,0.335,1,1,1,5,0.172,29,176
1373329,0.459,1,1,1,3,0.229,29,177
1373329,0.874,1,0,0,5,0.397,26,178
1373329,0.538,1,0,0,4,0.651,29,179
1373329,0.418,1,1,1,5,0.208,32,180
1373329,0.342,1,0,0,5,0.164,32,181
1373329,0.295,1,1,1,6,0.358,35,182
1373329,1.196,1,0,0,5,0.8,35,183
1373329,0.746,1,1,1,6,0.459,38,184
1373329,0.576,1,0,0,4,0.39,38,185
1373329,0.42,0,0,1,6,0.72,43,186
1373329,0.394,1,0,0,4,0.343,43,187
1373329,0.35,1,1,1,6,0.387,47,188
1373329,0.451,1,1,1,6,0.211,47,189
1373329,0.439,1,1,1,6,0.225,43,190
1373329,0.665,0,0,1,4,0.473,43,191
1373329,0.349,1,0,0,6,0.2,38,192
1373329,1.244,1,1,1,4,0.487,43,193
1373329,0.586,1,1,1,4,0.252,43,194
1373329,0.536,0,0,1,4,0.313,38,195
1373329,0.476,1,1,1,5,0.447,38,196
1373329,0.398,1,1,1,4,0.424,35,197
1373329,0.353,1,0,0,3,0.778,35,198
1373329,0.449,1,1,1,6,0.421,38,199
1373329,0.582,0,1,0,2,1.041,38,200
1373329,0.473,1,1,1,6,0.236,43,201
1373329,0.805,1,1,1,6,0.236,43,202
1373329,0.491,1,1,1,6,0.194,38,203
1373329,0.461,1,1,1,6,0.171,38,204
1373329,0.648,0,0,1,2,0.792,35,205
1373329,0.379,1,0,0,4,0.494,35,206
1373329,0.444,1,0,0,4,0.24,38,207
1373329,0.602,0,0,1,4,1.282,43,208
1373329,0.43,1,0,0,4,0.341,43,209
1373329,0.649,0,0,1,4,0.248,47,210
1373329,0.451,1,1,1,4,0.16,47,211
1373329,0.411,0,0,1,4,0.485,43,212
1373329,0.431,1,1,1,4,0.261,43,213
1373329,0.407,1,0,0,4,0.248,38,214
1373329,0.467,0,0,1,4,0.423,43,215
1373329,0.321,1,1,1,3,0.2,43,216
1373329,0.741,1,0,0,3,0.858,38,217
1373329,0.566,1,1,1,4,0.477,43,218
1373329,0.557,1,0,0,4,0.253,43,219
1373329,0.425,1,1,1,4,0.226,47,220
1373329,0.768,0,0,1,4,0.441,47,221
1373329,0.837,1,0,0,4,0.276,43,222
1373329,0.71,0,0,1,5,0.615,47,223
1373329,0.567,1,1,1,5,0.214,47,224
1373329,0.438,1,1,1,5,0.211,43,225
1373329,0.531,1,1,1,4,0.441,43,226
1373329,1.429,0,1,0,4,0.405,38,227
1373329,0.496,1,0,0,4,0.146,43,228
1373329,0.327,1,0,0,5,0.211,47,229
1373329,0.318,1,1,1,5,0.133,52,230
1373329,0.906,0,0,1,4,0.264,52,231
1373329,0.353,1,1,1,4,0.112,47,232
1373329,0.384,1,0,0,4,0.169,47,233
1373329,0.288,1,1,1,4,0.156,52,234
1373329,0.353,1,0,0,3,0.772,52,235
1373329,0.446,1,0,0,4,0.173,57,236
1373329,0.411,1,0,0,4,0.144,63,237
1373329,0.38,1,1,1,6,0.18,70,238
1373329,0.287,1,1,1,4,0.11,70,239
1373329,0.332,1,1,1,6,0.143,63,240
1373329,0.552,0,0,1,5,0.711,63,241
1373329,0.312,1,0,0,3,0.63,57,242
1373329,0.405,1,1,1,6,0.213,63,243
1373329,0.381,1,1,1,6,0.142,63,244
1373329,0.974,0,0,1,4,0.432,57,245
1373329,0.467,1,1,1,6,0.19,57,246
1373329,0.913,1,1,1,6,0.231,52,247
1373329,0.712,1,0,0,4,0.48,52,248
1373329,0.594,1,1,1,6,0.26,57,249
1373329,0.307,1,1,1,6,0.127,57,250
1373329,0.387,1,1,1,6,0.135,52,251
1373329,0.313,1,1,1,6,0.283,52,252
1373329,0.481,1,1,1,6,0.086,47,253
1373329,0.151,1,1,1,6,0.132,47,254
1373329,0.404,0,0,1,6,0.235,43,255
1373329,0.284,1,0,0,6,0.112,43,256
1373329,0.308,1,0,0,4,0.166,47,257
1373329,0.318,1,0,0,3,0.63,52,258
1373329,0.3,1,0,0,6,0.13,57,259
1373329,0.541,0,0,1,4,0.428,63,260
1373329,0.418,1,1,1,6,0.099,63,261
1373329,0.534,0,0,1,5,0.446,57,262
1373329,0.364,1,1,1,6,0.123,57,263
1373329,0.414,0,0,1,4,0.296,52,264
1373329,0.734,0,0,1,5,0.439,52,265
1373329,0.465,1,1,1,6,0.159,47,266
1373329,0.535,0,0,1,5,0.402,47,267
1373329,0.453,1,1,1,6,0.227,43,268
1373329,0.404,0,0,1,5,0.273,43,269
1373329,0.418,0,1,0,2,0.976,38,270
1373329,0.989,1,0,0,4,0.285,43,271
1373329,0.491,0,0,1,4,0.417,47,272
1373329,0.511,0,0,1,6,0.583,47,273
1373329,0.652,1,1,1,6,0.236,43,274
1373329,0.601,0,1,0,5,0.397,43,275
1373329,0.522,1,1,1,6,0.15,47,276
1373329,0.616,1,1,1,4,0.293,47,277
1373329,0.374,1,0,0,4,0.187,43,278
1373329,0.349,1,0,0,2,0.696,47,279
1373329,0.612,1,1,1,4,0.138,52,280
1373329,0.771,0,0,1,4,0.298,52,281
1373329,0.53,1,1,1,4,0.199,47,282
1373329,0.399,1,0,0,3,0.603,47,283
1373329,0.393,1,1,1,5,0.183,52,284
1373329,0.509,1,0,0,4,0.258,52,285
1373329,0.58,0,0,1,5,0.402,57,286
1373329,0.603,0,0,1,4,0.429,57,287
1373329,0.497,1,1,1,4,0.146,52,288
1373329,0.405,1,1,1,6,0.177,52,289
1373329,0.475,1,1,1,6,0.193,47,290
1373329,0.599,0,0,1,3,0.632,47,291
1373329,0.341,1,0,0,6,0.183,43,292
1373329,0.592,1,1,1,6,0.188,47,293
1373329,0.374,1,1,1,6,0.163,47,294
1373329,0.357,1,0,0,6,0.227,43,295
1373329,0.477,1,1,1,6,0.262,47,296
1373329,0.418,1,1,1,6,0.082,47,297
1373329,0.506,1,0,0,6,0.09,43,298
1373329,0.39,1,1,1,6,0.089,47,299
1373329,0.484,1,1,1,6,0.062,47,300
1373329,0.442,1,1,1,6,0.126,43,301
1373329,0.5,1,1,1,6,0.083,43,302
1373329,0.472,1,1,1,6,0.135,38,303
1373329,0.458,1,1,1,6,0.208,38,304
1373329,0.316,1,0,0,6,0.155,35,305
1373329,0.553,0,0,1,3,0.548,38,306
1373329,0.621,0,0,1,4,0.46,38,307
1373329,0.391,1,0,0,6,0.302,35,308
1373329,0.452,1,0,0,4,0.521,38,309
1373329,0.43,1,0,0,6,0.172,43,310
1373329,0.416,1,1,1,6,0.165,47,311
1373329,0.842,1,0,0,4,0.192,47,312
1373329,0.373,1,1,1,6,0.123,52,313
1373329,0.655,1,0,0,4,0.161,52,314
1373329,0.357,1,0,0,6,0.134,57,315
1373329,0.416,1,1,1,6,0.118,63,316
1373329,0.758,0,0,1,4,0.46,63,317
1373329,0.483,1,1,1,6,0.171,57,318
1373329,0.6,0,0,1,5,0.442,57,319
1373329,0.386,1,1,1,6,0.129,52,320
1373329,0.658,0,0,1,4,0.359,52,321
1373329,0.59,0,0,1,4,0.274,47,322
1373329,0.613,1,0,0,4,0.346,47,323
1373329,0.408,1,1,1,6,0.17,52,324
1373329,0.402,1,1,1,6,0.139,52,325
1373329,0.499,1,1,1,6,0.05,47,326
1373329,0.554,1,1,1,4,0.242,47,327
1373329,0.623,1,0,0,4,0.135,43,328
1373329,0.821,0,0,1,5,0.329,47,329
1373329,0.469,1,1,1,6,0.159,47,330
1373329,0.608,0,0,1,5,0.363,43,331
1373329,0.493,1,1,1,5,0.213,43,332
1373329,0.656,0,0,1,4,0.319,38,333
1373329,0.502,1,1,1,5,0.213,38,334
1373329,0.958,1,0,0,5,0.332,35,335
1373329,0.409,1,0,0,5,0.204,38,336
1373329,0.761,0,0,1,5,0.325,43,337
1373329,0.414,1,1,1,5,0.131,43,338
1373329,0.395,1,1,1,6,0.122,38,339
1373329,0.358,1,1,1,6,0.114,38,340
1373329,0.555,1,0,0,6,0.168,35,341
1373329,0.471,1,0,0,6,0.082,38,342
1373329,0.278,1,1,1,6,0.093,43,343
1373329,0.355,1,1,1,6,0.105,43,344
1373329,0.671,0,0,1,5,0.401,38,345
1373329,0.445,1,1,1,6,0.166,38,346
1373329,0.408,1,1,1,6,0.157,35,347
1373329,0.436,1,0,0,6,0.14,35,348
1373329,0.298,1,1,1,6,0.285,38,349
1373329,0.239,1,1,1,6,0.109,38,350
1373329,0.412,1,1,1,6,0.14,35,351
1373329,0.466,1,1,1,6,0.103,35,352
1373329,0.323,1,1,1,6,0.098,32,353
1373329,0.443,1,1,1,6,0.135,32,354
1373329,0.319,1,0,0,3,0.694,29,355
1373329,0.388,1,0,0,6,0.179,32,356
1373329,0.335,1,0,0,6,0.172,35,357
1373329,0.39,1,0,0,6,0.105,38,358
1373329,0.329,1,0,0,6,0.114,43,359
1373329,0.543,1,0,0,6,0.129,47,360
1373329,0.346,1,1,1,4,0.6,52,361
1373329,0.499,1,0,0,5,0.347,52,362
1373329,0.482,1,1,1,5,0.283,57,363
1373329,0.904,0,0,1,5,0.376,57,364
1373329,0.55,1,0,0,4,0.29,52,365
1373329,0.523,1,1,1,4,0.235,57,366
1373329,0.464,1,0,0,4,0.307,57,367
1373329,0.544,1,1,1,4,0.136,63,368
1373329,0.641,1,0,0,3,0.62,63,369
1373329,0.421,1,1,1,5,0.268,70,370
1373329,0.419,1,0,0,2,1.154,70,371
1373329,0.417,1,0,0,4,0.182,77,372
1373329,0.551,0,0,1,6,0.516,86,373
1373329,0.44,1,1,1,3,0.262,86,374
1373329,0.424,1,1,1,4,0.26,77,375
1373329,0.415,1,1,1,6,0.256,77,376
1373329,0.549,1,1,1,6,0.196,70,377
1373329,0.751,0,0,1,4,0.292,70,378
1373329,0.447,1,0,0,5,0.238,63,379
1373329,0.455,1,1,1,6,0.162,70,380
1373329,0.412,1,0,0,2,0.841,70,381
1373329,0.431,1,1,1,4,0.437,77,382
1373329,0.839,0,0,1,6,0.717,77,383
1373329,0.391,1,1,1,6,0.138,70,384
1373329,0.566,0,0,1,4,0.619,70,385
1373329,0.818,0,0,1,4,0.515,63,386
1373329,0.491,1,0,0,4,0.251,63,387
1373329,0.399,1,1,1,6,0.137,70,388
1373329,0.44,1,1,1,6,0.156,70,389
1373329,1.9,1,1,1,4,0.484,63,390
1373329,0.654,1,0,0,4,0.235,63,391
1373329,0.479,0,0,1,5,0.491,70,392
1373329,0.513,1,1,1,5,0.267,70,393
1373329,0.683,1,1,1,4,0.226,63,394
1373329,0.607,0,0,1,5,0.548,63,395
1373329,0.652,1,1,1,4,0.187,57,396
1373329,0.692,1,1,1,4,0.593,57,397
1373329,0.646,1,0,0,4,0.249,52,398
1373329,0.392,1,1,1,4,0.141,57,399
1373329,0.322,1,1,1,4,0.117,57,400
1373329,0.389,1,1,1,4,0.123,52,401
1373329,0.425,1,1,1,4,0.082,52,402
1373329,0.539,1,1,1,4,0.12,47,403
1373329,0.454,1,1,1,4,0.152,47,404
1373329,0.486,1,0,0,4,0.471,43,405
1373329,0.458,1,0,0,4,0.115,47,406
1373329,0.719,0,0,1,4,0.262,52,407
1373329,0.763,0,0,1,4,0.276,52,408
1373329,0.636,1,0,0,4,0.14,47,409
1373329,0.547,1,0,0,4,0.255,52,410
1373329,0.627,1,1,1,4,0.156,57,411
1373329,0.497,1,0,0,4,0.21,57,412
1373329,0.46,1,1,1,4,0.177,63,413
1373329,0.55,1,0,0,4,0.176,63,414
1373329,0.407,1,0,0,4,0.18,70,415
1373329,0.44,1,1,1,4,0.128,77,416
1373329,0.781,0,0,1,4,0.264,77,417
1373329,0.423,1,1,1,4,0.139,70,418
1373329,0.488,1,0,0,4,0.201,70,419
1373329,0.389,1,1,1,4,0.118,77,420
1373329,0.498,0,0,1,4,0.213,77,421
1373329,0.403,1,0,0,4,0.156,70,422
1373329,0.572,0,0,1,3,0.416,77,423
1373329,0.479,1,1,1,4,0.299,77,424
1373329,0.394,1,1,1,6,0.334,70,425
1373329,0.494,1,1,1,4,0.663,70,426
1373329,0.376,1,1,1,4,0.145,63,427
1373329,0.513,0,0,1,4,0.301,63,428
1373329,0.805,0,0,1,5,0.343,57,429
1373329,0.689,1,1,1,4,0.195,57,430
1373329,0.5,0,0,1,4,0.206,52,431
1373329,0.45,1,1,1,4,0.193,52,432
1373329,0.484,0,0,1,4,0.354,47,433
1373329,0.494,1,1,1,4,0.105,47,434
1373329,0.718,0,0,1,4,0.257,43,435
1373329,0.698,1,0,0,4,0.144,43,436
1373329,0.512,0,0,1,4,0.265,47,437
1373329,0.467,1,1,1,4,0.116,47,438
1373329,0.549,1,1,1,4,0.143,43,439
1373329,0.575,1,1,1,4,0.132,43,440
1373329,0.473,0,0,1,4,0.181,38,441
1373329,0.469,1,0,0,4,1.607,38,442
1373329,0.44,1,1,1,4,0.184,43,443
1373329,0.721,1,1,1,4,0.191,43,444
1373329,0.628,1,0,0,4,0.172,38,445
1373329,0.49,1,1,1,4,0.152,43,446
1373329,0.478,1,1,1,4,0.121,43,447
1373329,0.582,1,0,0,4,0.135,38,448
1373329,0.745,1,1,1,4,0.219,43,449
1373329,0.533,1,1,1,4,0.168,43,450
1373329,0.404,1,1,1,4,0.178,38,451
1373329,0.622,1,1,1,4,0.126,38,452
1373329,0.429,1,1,1,4,0.14,35,453
1373329,0.482,1,1,1,4,0.17,35,454
1373329,0.585,0,0,1,4,0.271,32,455
1373329,0.485,1,0,0,4,0.138,32,456
1373329,0.667,1,0,0,4,0.157,35,457
1373329,0.367,1,0,0,4,0.165,38,458
1373329,0.56,1,0,0,4,0.14,43,459
1373329,0.62,0,0,1,4,0.199,47,460
1373329,0.375,1,1,1,4,0.143,47,461
1373329,0.288,1,0,0,4,0.144,43,462
1373329,0.485,1,1,1,4,1.925,47,463
1373329,0.825,1,0,0,4,0.307,47,464
1373329,0.711,0,0,1,4,0.584,52,465
1373329,0.488,1,1,1,4,0.14,52,466
1373329,0.499,0,0,1,5,0.444,47,467
1373329,0.495,1,1,1,5,0.115,47,468
1373329,0.715,0,0,1,5,0.415,43,469
1373329,0.559,1,1,1,5,0.676,43,470
1373329,0.601,1,0,0,5,0.132,38,471
1373329,0.904,0,0,1,4,0.358,43,472
1373329,0.552,1,0,0,4,0.224,43,473
1373329,0.449,1,1,1,5,0.169,47,474
1373329,0.4,1,1,1,5,0.264,47,475
1373329,0.389,1,1,1,5,0.14,43,476
1373329,0.555,1,1,1,4,0.144,43,477
1373329,0.501,1,0,0,4,0.102,38,478
1373329,0.369,1,0,0,5,0.167,43,479
1373329,0.481,1,1,1,4,0.172,47,480
1373329,0.506,1,0,0,4,0.102,47,481
1373329,0.339,1,1,1,4,0.13,52,482
1373329,0.442,1,0,0,4,0.147,52,483
1373329,0.59,1,1,1,4,0.195,57,484
1373329,0.486,1,0,0,4,0.144,57,485
1373329,0.351,1,0,0,4,0.166,63,486
1373329,0.583,0,0,1,4,0.256,70,487
1373329,0.423,1,1,1,4,0.112,70,488
1373329,0.348,1,1,1,4,0.138,63,489
1373329,0.343,1,1,1,4,0.124,63,490
1373329,0.375,1,0,0,4,0.207,57,491
1373329,0.341,1,0,0,4,0.151,63,492
1373329,0.552,1,1,1,4,0.598,70,493
1373329,0.436,1,1,1,4,0.148,70,494
1373329,0.453,1,0,0,4,0.17,63,495
1373329,0.416,1,1,1,4,0.113,70,496
1373329,0.403,1,1,1,4,0.136,70,497
1373329,0.638,0,0,1,4,0.234,63,498
1373329,0.45,1,1,1,4,0.169,63,499
1373329,0.39,1,1,1,4,0.185,57,500
1373329,0.348,1,1,1,4,0.112,57,501
1373329,0.462,1,1,1,4,0.16,52,502
1373329,0.413,1,1,1,4,0.134,52,503
1373329,0.478,1,1,1,4,0.219,47,504
1373329,0.508,0,0,1,4,0.26,47,505
1373329,0.565,1,0,0,4,0.155,43,506
1373329,0.514,0,0,1,4,0.182,47,507
1373329,0.568,0,0,1,4,0.176,47,508
1373329,0.477,0,0,1,4,0.36,43,509
1373329,0.445,0,0,1,4,0.314,43,510
1373329,0.457,1,1,1,5,0.198,38,511
1373329,0.489,0,0,1,6,0.061,38,512
1373329,0.371,1,1,1,6,0.14,35,513
1373329,0.378,1,0,0,3,0.625,35,514
1373329,0.481,0,0,1,4,0.247,38,515
1373329,0.488,1,1,1,4,0.169,38,516
1373329,0.452,0,0,1,4,0.186,35,517
1373329,0.408,1,1,1,6,0.178,35,518
1373329,0.72,0,0,1,4,0.232,32,519
1373329,0.428,1,1,1,6,0.17,32,520
1373329,0.351,1,0,0,6,0.224,29,521
1373329,0.417,1,0,0,6,0.114,32,522
1373329,0.676,0,0,1,4,0.236,35,523
1373329,0.375,1,1,1,6,0.112,35,524
1373329,0.513,1,1,1,6,0.135,32,525
1373329,0.559,0,1,0,4,0.194,32,526
1481404,2.639,0,0,1,4,2.055,17,27
1481404,2.826,1,1,1,5,2.639,16,28
1481404,1.792,0,0,1,6,0.852,16,29
1481404,1.308,1,0,0,4,1.353,14,30
1481404,1.398,0,0,1,3,1.223,16,31
1481404,1.385,0,0,1,5,0.82,16,32
1481404,1.211,0,0,1,6,0.7,14,33
1481404,1.832,0,0,1,3,1.511,14,34
1481404,1.467,0,0,1,5,0.599,13,35
1481404,1.338,1,1,1,5,1.375,13,36
1481404,1.093,0,0,1,5,0.528,12,37
1481404,2.314,0,0,1,3,1.827,12,38
1481404,4.032,1,1,1,2,0.897,10,39
1481404,1.138,1,1,1,4,0.973,10,40
1481404,1.102,0,1,0,3,1.411,9,41
1481404,1.103,1,1,1,5,0.585,10,42
1481404,1.033,1,1,1,5,0.493,10,43
1481404,0.943,1,1,1,5,0.474,9,44
1481404,1.954,1,1,1,4,0.477,9,45
1481404,2.368,1,0,0,4,2.075,9,46
1481404,1.481,0,0,1,3,2.431,9,47
1481404,1.276,0,1,0,3,0.465,9,48
1481404,0.808,1,1,1,6,0.641,10,49
1481404,1.92,1,1,1,4,1.708,10,50
1481404,0.861,1,1,1,6,0.686,9,51
1481404,2.031,1,1,1,3,1.01,9,52
1481404,1.329,1,1,1,3,0.605,9,53
1481404,1.034,0,0,1,5,0.957,9,54
1481404,1.447,0,0,1,5,0.475,8,55
1481404,1.218,1,1,1,3,1.785,8,56
1481404,1.984,1,1,1,3,1.047,7,57
1481404,1.572,0,0,1,4,0.731,7,58
1481404,2.829,0,0,1,4,0.947,6,59
1481404,1.834,1,0,0,2,1.884,6,60
1481404,1.789,1,0,0,2,0.264,7,61
1481404,1.642,1,1,1,5,0.355,8,62
1481404,1.253,1,0,0,5,1.205,8,63
1481404,1.282,1,1,1,4,0.811,9,64
1481404,1.502,1,0,0,4,1.292,9,65
1481404,1.271,0,0,1,4,0.588,9,66
1481404,1.367,0,0,1,4,0.267,9,67
1481404,1.16,1,0,0,3,0.869,9,68
1481404,1.734,1,0,0,2,0.534,9,69
1481404,0.788,0,0,1,3,1.28,10,70
1481404,1.232,1,0,0,3,0.939,10,71
1481404,1.922,1,1,1,4,0.269,12,72
1481404,1.078,1,0,0,4,0.201,12,73
1481404,1.091,0,0,1,5,0.271,13,74
1481404,1.335,1,1,1,5,0.213,13,75
1481404,0.997,1,1,1,5,0.171,12,76
1481404,1.124,0,0,1,4,0.684,12,77
1481404,1.398,1,1,1,4,2.09,10,78
1481404,1.252,0,0,1,3,0.745,10,79
1481404,1.422,1,0,0,5,0.787,9,80
1481404,0.893,0,0,1,4,0.568,10,81
1481404,1.262,1,0,0,4,0.357,10,82
1481404,1.038,0,0,1,3,1.274,12,83
1481404,1.468,1,0,0,4,0.63,12,84
1481404,2.819,0,0,1,4,0.252,13,85
1481404,0.995,1,1,1,6,0.361,13,86
1481404,2.262,1,0,0,2,0.761,12,87
1481404,0.975,0,0,1,4,1.059,13,88
1481404,1.345,0,1,0,5,0.602,13,89
1481404,1.537,1,1,1,5,0.578,14,90
1481404,1.014,1,1,1,5,0.257,14,91
1481404,1.757,1,1,1,5,0.385,13,92
1481404,1.169,1,1,1,4,1.019,13,93
1481404,0.682,0,1,0,4,0.589,12,94
1481404,0.988,1,1,1,4,0.31,13,95
1481404,1.196,0,0,1,5,0.399,13,96
1481404,1.145,0,0,1,5,0.161,12,97
1481404,0.809,1,1,1,6,0.661,12,98
1481404,0.944,1,1,1,6,0.163,10,99
1481404,1.239,1,1,1,6,0.189,10,100
1481404,0.885,1,1,1,6,0.184,9,101
1481404,0.73,1,1,1,6,0.14,9,102
1481404,2.057,1,1,1,4,0.153,9,103
1481404,1.059,1,0,0,4,0.179,9,104
1481404,1.001,1,0,0,4,0.132,9,105
1481404,0.863,1,1,1,6,0.221,10,106
1481404,0.898,1,1,1,6,0.413,10,107
1481404,0.86,1,0,0,6,0.142,9,108
1481404,0.787,1,0,0,6,0.14,10,109
1481404,1.029,1,0,0,6,0.158,12,110
1481404,0.945,1,0,0,5,0.511,13,111
1481404,0.884,1,1,1,4,0.257,14,112
1481404,1.769,1,0,0,4,0.894,14,113
1481404,1.909,1,1,1,4,0.732,16,114
1481404,1.614,1,0,0,3,0.946,16,115
1481404,1.787,0,0,1,3,0.589,17,116
1481404,1.662,0,0,1,4,0.902,17,117
1481404,0.965,0,0,1,4,0.985,16,118
1481404,0.792,0,0,1,4,0.259,16,119
1481404,2.85,0,0,1,5,0.39,14,120
1481404,1.157,0,0,1,5,0.203,14,121
1481404,1.12,1,1,1,5,0.555,13,122
1481404,1.212,0,0,1,5,0.266,13,123
1481404,1.282,0,0,1,4,0.409,12,124
1481404,1.37,1,1,1,3,0.541,12,125
1481404,0.841,1,1,1,5,0.474,10,126
1481404,0.999,0,0,1,4,0.753,10,127
1481404,1.219,1,1,1,4,0.277,9,128
1481404,0.903,0,0,1,5,0.646,9,129
1481404,1.517,1,0,0,4,0.618,9,130
1481404,0.476,0,0,1,3,1.623,9,131
1481404,0.795,0,0,1,5,0.954,9,132
1481404,1.405,1,0,0,3,0.58,9,133
1481404,1.158,1,0,0,4,0.597,9,134
1481404,1.434,1,0,0,4,0.295,10,135
1481404,0.945,1,1,1,4,0.409,12,136
1481404,0.838,1,0,0,3,0.832,12,137
1481404,0.955,1,0,0,4,0.617,13,138
1481404,0.915,1,1,1,4,1.081,14,139
1481404,0.685,1,1,1,5,0.475,14,140
1481404,0.921,1,1,1,5,0.705,13,141
1481404,0.812,1,1,1,6,0.262,13,142
1481404,0.825,1,1,1,6,0.166,12,143
1481404,0.757,1,1,1,6,0.747,12,144
1481404,0.684,1,1,1,5,0.551,10,145
1481404,0.747,1,0,0,3,0.658,10,146
1481404,1.338,0,0,1,4,0.378,12,147
1481404,0.947,0,1,0,4,1.15,12,148
1481404,1.092,1,1,1,4,0.611,13,149
1481404,1.09,0,1,0,4,0.225,13,150
1481404,1.127,1,1,1,3,1.152,14,151
1481404,1.028,1,1,1,6,0.472,14,152
1481404,1.213,1,1,1,5,0.323,13,153
1481404,1.28,1,0,0,5,0.227,13,154
1481404,2.281,1,0,0,4,1.521,14,155
1481404,2.494,1,1,1,3,0.257,16,156
1481404,0.991,1,1,1,5,0.207,16,157
1481404,2.528,0,0,1,5,0.505,14,158
1481404,2.468,1,0,0,3,0.366,14,159
1481404,1.986,0,0,1,5,0.312,16,160
1481404,3.48,0,0,1,5,0.389,16,161
1481404,1.483,0,1,0,4,0.53,14,162
1481404,0.953,0,0,1,3,0.419,16,163
1481404,0.896,1,1,1,3,0.605,16,164
1481404,1.089,0,0,1,4,0.39,14,165
1481404,0.83,0,0,1,6,0.041,14,166
1481404,1.148,0,0,1,5,0.454,13,167
1481404,1.215,1,0,0,2,0.236,13,168
1481404,1.16,0,0,1,5,0.29,14,169
1481404,1.75,0,0,1,4,2.099,14,170
1481404,3.031,0,0,1,4,0.751,13,171
1481404,0.921,0,1,0,1,1.949,13,172
1481404,1.585,0,0,1,4,1.382,14,173
1481404,0.696,0,0,1,4,0.475,14,174
1481404,0.985,1,1,1,3,0.916,13,175
1481404,0.702,1,1,1,5,0.292,13,176
1481404,1.041,0,0,1,4,0.564,12,177
1481404,1.439,1,1,1,3,0.784,12,178
1481404,0.601,0,0,1,4,0.91,10,179
1481404,1.809,0,0,1,1,1.858,10,180
1481404,1.234,1,0,0,5,0.416,9,181
1481404,0.813,1,0,0,5,0.345,10,182
1481404,1.032,1,0,0,2,0.615,12,183
1481404,1.176,0,0,1,5,0.441,13,184
1481404,1.008,0,0,1,2,0.694,13,185
1481404,1.327,1,1,1,2,0.465,12,186
1481404,1.469,0,0,1,5,0.438,12,187
1481404,0.871,1,0,0,5,0.327,10,188
1481404,0.896,1,1,1,5,0.155,12,189
1481404,1.525,0,1,0,3,0.276,12,190
1481404,1.239,1,1,1,4,0.117,13,191
1481404,1.215,1,1,1,2,0.185,13,192
1481404,1.197,1,1,1,4,0.303,12,193
1481404,0.853,1,1,1,2,0.184,12,194
1481404,1.04,1,1,1,5,0.193,10,195
1481404,0.471,0,0,1,3,0.639,10,196
1481404,1.099,1,0,0,2,0.247,9,197
1481404,1.326,1,1,1,3,0.263,10,198
1481404,1.855,1,1,1,4,0.294,10,199
1481404,0.75,0,1,0,4,0.609,9,200
1481404,0.785,1,1,1,4,0.246,10,201
1481404,0.869,0,1,0,4,0.357,10,202
1481404,0.808,1,1,1,4,0.143,12,203
1481404,1.762,1,0,0,1,0.417,12,204
1481404,1.311,1,0,0,2,0.167,13,205
1481404,1.184,0,1,0,2,0.819,14,206
1481404,0.777,0,1,0,4,0.712,16,207
1481404,1.202,1,0,0,4,0.377,17,208
1481404,0.772,0,0,1,4,0.377,19,209
1481404,0.748,0,0,1,4,0.322,19,210
1481404,0.695,0,0,1,5,0.529,17,211
1481404,0.622,1,1,1,5,0.254,17,212
1481404,0.64,0,0,1,2,0.238,16,213
1481404,1.294,0,1,0,2,0.445,16,214
1481404,1.106,0,0,1,2,0.472,17,215
1481404,1.173,1,0,0,3,0.58,17,216
1481404,1.91,1,0,0,4,0.334,19,217
1481404,2.673,1,0,0,2,0.541,21,218
1481404,1.304,0,0,1,6,0.268,23,219
1481404,1.341,0,0,1,6,0.174,23,220
1481404,0.742,0,0,1,6,0.16,21,221
1481404,1.097,0,1,0,5,0.311,21,222
1481404,0.962,0,0,1,4,0.249,23,223
1481404,0.958,0,0,1,4,0.477,23,224
1481404,2.229,0,1,0,3,0.417,21,225
1481404,1.39,0,1,0,3,0.385,23,226
1481404,0.843,0,0,1,2,0.501,26,227
1481404,1.328,0,1,0,3,0.398,26,228
1481404,0.594,0,0,1,4,0.596,29,229
1481404,0.691,0,0,1,4,0.277,29,230
1481404,0.859,1,0,0,4,0.299,26,231
1481404,0.696,1,0,0,3,0.295,29,232
1481404,0.516,0,0,1,3,0.235,32,233
1481404,0.706,0,0,1,3,0.285,32,234
1481404,0.586,0,0,1,3,0.178,29,235
1481404,0.891,1,1,1,4,0.252,29,236
1481404,0.578,0,0,1,3,0.164,26,237
1481404,0.732,0,0,1,4,0.329,26,238
1481404,0.57,1,1,1,4,0.212,23,239
1481404,0.459,1,1,1,4,0.146,23,240
1481404,0.635,1,1,1,6,0.134,21,241
1481404,0.489,0,1,0,2,1.414,21,242
1481404,0.386,1,1,1,4,1.002,23,243
1481404,1.002,1,1,1,5,0.782,23,244
1481404,1.315,1,1,1,5,1.153,21,245
1481404,0.955,0,0,1,3,1.055,21,246
1481404,0.841,0,0,1,2,0.586,19,247
1481404,0.933,1,1,1,5,0.439,19,248
1481404,0.728,1,1,1,6,0.412,17,249
1481404,0.913,1,1,1,5,0.389,17,250
1481404,1.236,1,1,1,2,0.331,16,251
1481404,0.661,1,1,1,2,0.219,16,252
1481404,1.016,1,1,1,3,0.242,14,253
1481404,1.334,1,0,0,3,0.18,14,254
1481404,1.473,1,0,0,4,0.245,16,255
1481404,1.902,1,1,1,3,1.933,17,256
1481404,1.266,0,1,0,4,0.918,17,257
1481404,1.369,1,0,0,3,0.974,19,258
1481404,0.928,1,0,0,4,0.698,21,259
1481404,0.758,0,0,1,4,0.657,23,260
1481404,1.155,0,0,1,3,1.714,23,261
1481404,1.183,1,1,1,2,0.496,21,262
1481404,0.665,1,0,0,5,0.263,21,263
1481404,0.916,1,1,1,2,0.219,23,264
1481404,0.762,0,0,1,3,0.233,23,265
1481404,0.708,0,0,1,4,0.587,21,266
1481404,2.174,1,0,0,2,0.799,21,267
1481404,0.808,0,0,1,4,0.177,23,268
1481404,0.843,1,0,0,3,0.271,23,269
1481404,0.969,1,0,0,3,0.235,26,270
1481404,0.65,0,0,1,4,0.211,29,271
1481404,0.47,1,1,1,3,0.176,29,272
1481404,0.499,0,0,1,4,0.257,26,273
1481404,0.554,0,0,1,5,0.319,26,274
1481404,0.592,1,1,1,3,0.137,23,275
1481404,1.46,0,1,0,3,0.27,23,276
1481404,1.434,1,0,0,1,0.723,26,277
1481404,1.272,1,1,1,5,0.778,29,278
1481404,1.225,0,0,1,5,0.505,29,279
1481404,1.367,1,0,0,2,0.529,26,280
1481404,0.862,0,0,1,6,0.411,29,281
1481404,0.892,0,0,1,6,0.503,29,282
1481404,0.961,0,0,1,6,0.366,26,283
1481404,1.057,0,0,1,4,0.761,26,284
1481404,1.174,0,0,1,3,0.553,23,285
1481404,0.975,1,1,1,4,1.459,23,286
1481404,2.641,1,0,0,3,0.94,21,287
1481404,1.046,0,0,1,4,0.711,23,288
1481404,1.024,1,1,1,3,0.727,23,289
1481404,0.773,1,1,1,3,0.181,21,290
1481404,0.443,0,1,0,4,0.201,21,291
1481404,0.798,1,1,1,3,0.154,23,292
1481404,1.049,1,1,1,3,0.147,23,293
1481404,1.029,1,1,1,4,0.375,21,294
1481404,1.171,1,1,1,3,0.175,21,295
1481404,1.17,1,0,0,3,0.192,19,296
1481404,0.818,1,0,0,2,0.459,21,297
1481404,0.561,1,1,1,2,2.11,23,298
1481404,0.945,0,1,0,4,0.599,23,299
1481404,1.209,0,1,0,4,0.604,26,300
1481404,1.096,0,1,0,4,0.726,29,301
1481404,0.978,1,1,1,5,0.583,32,302
1481404,0.95,1,1,1,5,0.757,32,303
1481404,0.995,0,0,1,5,0.576,29,304
1481404,0.8,0,0,1,5,0.349,29,305
1481404,0.655,1,1,1,3,1.004,26,306
1481404,0.882,1,1,1,4,0.722,26,307
1481404,1.475,1,0,0,1,0.517,23,308
1481404,1.145,1,0,0,1,0.159,26,309
1481404,2.514,0,0,1,4,0.231,29,310
1481404,1.352,0,0,1,4,0.147,29,311
1481404,0.618,1,1,1,3,0.125,26,312
1481404,0.58,0,0,1,3,0.207,26,313
1481404,0.531,0,1,0,4,0.198,23,314
1481404,0.882,1,0,0,3,0.113,26,315
1481404,0.682,0,0,1,4,0.123,29,316
1481404,0.613,0,0,1,5,0.339,29,317
1481404,2.073,0,0,1,2,0.278,26,318
1481404,0.745,0,0,1,5,0.505,26,319
1481404,0.836,1,0,0,5,0.439,23,320
1481404,0.871,0,0,1,5,0.52,26,321
1481404,0.704,1,1,1,5,0.217,26,322
1481404,1.567,1,0,0,4,0.625,23,323
1481404,0.734,1,0,0,4,0.17,26,324
1481404,0.72,1,1,1,5,0.397,29,325
1481404,0.547,0,1,0,2,1.109,29,326
1481404,1.223,1,0,0,1,0.243,32,327
1481404,0.662,1,1,1,5,0.421,35,328
1481404,0.887,0,0,1,5,0.383,35,329
1481404,0.775,0,0,1,4,0.205,32,330
1481404,0.681,0,0,1,5,0.58,32,331
1481404,0.654,0,0,1,5,0.302,29,332
1481404,0.598,0,0,1,5,0.227,29,333
1481404,1.199,0,0,1,4,0.175,26,334
1481404,0.725,1,0,0,5,0.129,26,335
1481404,0.617,1,1,1,5,0.288,29,336
1481404,0.654,0,0,1,4,1.348,29,337
1481404,0.666,0,0,1,4,0.507,26,338
1481404,1.711,0,1,0,3,0.781,26,339
1481404,0.495,1,1,1,3,0.608,29,340
1481404,0.606,1,1,1,4,0.632,29,341
1481404,1.235,1,1,1,4,0.402,26,342
1481404,0.703,1,1,1,5,1.077,26,343
1481404,0.762,1,1,1,5,0.148,23,344
1481404,2.439,1,1,1,2,0.849,23,345
1481404,0.971,0,0,1,2,0.228,21,346
1481404,1.595,1,0,0,3,0.209,21,347
1481404,1.279,1,1,1,4,0.197,23,348
1481404,0.789,1,1,1,5,0.473,23,349
1481404,0.778,1,1,1,4,0.776,21,350
1481404,0.949,1,1,1,4,0.277,21,351
1481404,0.705,1,1,1,4,0.139,19,352
1481404,0.781,1,1,1,4,0.134,19,353
1481404,1.077,0,0,1,4,0.811,17,354
1481404,1.049,1,0,0,3,0.261,17,355
1481404,0.715,0,1,0,3,0.283,19,356
1481404,0.803,0,1,0,3,0.198,21,357
1481404,1.081,1,0,0,3,0.668,23,358
1481404,0.889,1,0,0,3,0.575,26,359
1481404,0.81,1,0,0,4,0.823,29,360
1481404,1.293,0,0,1,4,0.166,32,361
1481404,0.787,1,1,1,4,0.429,32,362
1481404,1.941,0,0,1,4,0.15,29,363
1481404,0.842,1,1,1,6,0.768,29,364
1481404,1.731,1,0,0,5,0.143,26,365
1481404,1.399,0,0,1,4,0.408,29,366
1481404,1.242,0,0,1,3,2.533,29,367
1481404,0.711,0,0,1,4,0.192,26,368
1481404,0.855,0,0,1,3,1.089,26,369
1481404,1.049,0,0,1,4,0.524,23,370
1481404,2.087,0,0,1,5,1.107,23,371
1481404,1.114,0,1,0,5,0.354,21,372
1481404,0.785,0,0,1,4,0.435,23,373
1481404,0.69,1,0,0,4,0.223,23,374
1481404,1.94,1,1,1,2,0.243,26,375
1481404,0.973,1,1,1,4,0.474,26,376
1481404,0.725,0,0,1,5,0.683,23,377
1481404,0.67,1,1,1,5,0.299,23,378
1481404,1.559,1,0,0,4,1.957,21,379
1481404,1.091,0,0,1,4,0.745,23,380
1481404,1.182,1,0,0,4,1.303,23,381
1481404,1.088,0,0,1,3,1.349,26,382
1481404,1.576,1,0,0,4,0.188,26,383
1481404,0.697,0,0,1,4,0.307,29,384
1481404,0.727,0,0,1,4,0.133,29,385
1481404,0.632,0,1,0,4,0.168,26,386
1481404,0.6,0,0,1,4,0.156,29,387
1481404,0.994,1,0,0,3,0.974,29,388
1481404,0.868,0,1,0,3,1.006,32,389
1481404,0.864,1,1,1,4,0.396,35,390
1481404,0.716,0,1,0,4,0.345,35,391
1481404,0.561,0,1,0,4,0.133,38,392
1481404,0.531,1,1,1,5,0.785,43,393
1481404,0.505,1,1,1,5,0.406,43,394
1481404,0.561,1,1,1,5,0.468,38,395
1481404,1.549,0,0,1,4,0.262,38,396
1481404,1.256,1,0,0,3,0.628,35,397
1481404,1.184,1,1,1,3,0.249,38,398
1481404,0.697,1,1,1,3,0.631,38,399
1481404,0.779,1,1,1,3,0.512,35,400
1481404,0.753,1,1,1,3,0.425,35,401
1481404,1.5,1,1,1,4,0.543,32,402
1481404,1.752,1,1,1,5,1.055,32,403
1481404,1.391,0,0,1,5,0.299,29,404
1481404,0.925,0,0,1,5,0.164,29,405
1481404,1.372,1,1,1,5,0.148,26,406
1481404,0.811,1,1,1,4,0.191,26,407
1481404,2.045,0,0,1,3,0.301,23,408
1481404,0.735,0,0,1,3,0.292,23,409
1481404,0.642,1,0,0,3,0.222,21,410
1481404,0.431,0,0,1,3,0.153,23,411
1481404,0.237,1,1,1,4,0.088,23,412
1481404,0.335,0,0,1,3,0.214,21,413
1481404,0.494,1,1,1,4,0.167,21,414
1481404,0.448,0,0,1,3,0.321,19,415
1481404,0.867,1,0,0,4,0.065,19,416
1481404,0.866,0,0,1,3,0.139,21,417
1481404,0.912,0,0,1,3,0.18,21,418
1481404,0.353,1,0,0,4,0.176,19,419
1481404,0.558,1,0,0,3,0.107,21,420
1481404,0.567,0,0,1,3,0.883,23,421
1481404,0.498,1,1,1,4,0.438,23,422
1481404,1.268,1,0,0,4,0.359,21,423
1481404,0.565,1,0,0,4,0.38,23,424
1481404,0.559,1,1,1,5,0.381,26,425
1481404,0.882,1,1,1,6,0.586,26,426
1481404,1.262,0,0,1,5,0.429,23,427
1481404,1.449,0,1,0,5,0.246,23,428
1481404,1.149,1,0,0,2,0.223,26,429
1481404,0.734,0,0,1,5,0.35,29,430
1481404,0.769,0,0,1,4,0.237,29,431
1481404,0.886,1,0,0,2,0.548,26,432
1481404,1.117,1,0,0,2,0.112,29,433
1481404,1.083,0,0,1,5,0.403,32,434
1481404,2.261,0,0,1,3,0.543,32,435
1481404,1.071,0,1,0,3,0.426,29,436
1481404,0.963,1,0,0,3,0.154,32,437
1481404,0.925,0,0,1,5,0.282,35,438
1481404,0.507,1,1,1,5,0.631,35,439
1481404,0.569,1,1,1,5,0.151,32,440
1481404,0.577,1,1,1,5,0.174,32,441
1481404,0.526,1,1,1,5,0.368,29,442
1481404,0.569,1,1,1,4,0.182,29,443
1481404,0.337,1,1,1,4,0.139,26,444
1481404,0.404,1,1,1,4,0.087,26,445
1481404,0.373,1,0,0,5,0.149,23,446
1481404,0.813,1,0,0,3,0.997,26,447
1481404,0.456,1,1,1,4,0.46,29,448
1481404,1.17,1,1,1,5,0.182,29,449
1481404,0.636,1,1,1,4,0.601,26,450
1481404,0.506,1,1,1,4,0.392,26,451
1481404,0.49,1,1,1,5,0.377,23,452
1481404,1.1,1,1,1,5,0.443,23,453
1481404,1.03,1,0,0,2,0.787,21,454
1481404,0.9,1,0,0,3,0.453,23,455
1481404,0.645,1,1,1,5,0.695,26,456
1481404,1.302,1,1,1,2,0.653,26,457
1481404,0.84,0,0,1,5,0.825,23,458
1481404,0.719,0,0,1,5,0.173,23,459
1481404,0.732,0,0,1,5,0.146,21,460
1481404,0.92,1,0,0,2,0.158,21,461
1481404,0.714,0,1,0,2,0.344,23,462
1481404,0.497,0,0,1,2,0.571,26,463
1481404,0.851,0,1,0,3,0.688,26,464
1481404,0.736,0,0,1,3,0.31,29,465
1481404,0.943,0,0,1,4,0.528,29,466
1481404,1.032,0,0,1,4,0.482,26,467
1481404,0.837,0,0,1,5,0.452,26,468
1481404,1.04,0,0,1,4,0.798,23,469
1481404,0.553,0,0,1,4,0.238,23,470
1481404,0.56,0,0,1,4,0.197,21,471
1481404,0.967,1,1,1,3,0.212,21,472
1481404,0.597,1,0,0,3,0.151,19,473
1481404,0.373,0,0,1,4,0.173,21,474
1481404,0.48,1,1,1,3,0.348,21,475
1481404,0.457,0,1,0,4,0.229,19,476
1481404,1.282,0,0,1,4,0.523,21,477
1481404,0.839,0,1,0,4,0.424,21,478
1481404,0.697,0,0,1,4,0.503,23,479
1481404,0.459,1,0,0,3,0.147,23,480
1481404,0.627,0,0,1,3,0.358,26,481
1481404,1.267,1,0,0,3,0.117,26,482
1481404,0.57,0,0,1,4,0.454,29,483
1481404,0.658,1,0,0,5,0.345,29,484
1481404,0.91,0,0,1,5,0.262,32,485
1481404,0.871,0,1,0,2,0.41,32,486
1481404,0.719,0,0,1,4,0.4,35,487
1481404,0.718,0,0,1,3,0.12,35,488
1481404,1.54,0,1,0,4,0.504,32,489
1481404,2.069,1,1,1,4,0.566,35,490
1481404,0.796,1,1,1,5,0.171,35,491
1481404,0.593,1,1,1,5,0.173,32,492
1481404,0.618,1,1,1,5,0.156,32,493
1481404,0.61,1,1,1,5,0.186,29,494
1481404,0.642,1,1,1,6,0.172,29,495
1481404,1.06,1,0,0,5,0.3,26,496
1481404,1.243,1,0,0,4,0.161,29,497
1481404,0.657,1,1,1,4,0.154,32,498
1481404,0.679,1,1,1,5,0.384,32,499
1481404,1.606,1,1,1,3,1.267,29,500
1481404,0.771,1,1,1,4,1.226,29,501
1481404,0.706,1,1,1,5,0.186,26,502
1481404,0.633,1,1,1,5,0.186,26,503
1481404,1.895,1,0,0,3,0.111,23,504
1481404,1.337,0,0,1,4,0.808,26,505
1481404,1.788,0,1,0,4,0.224,26,506
1481404,0.971,0,1,0,4,0.175,29,507
1481404,0.766,0,0,1,4,0.891,32,508
1481404,1.121,0,0,1,4,0.196,32,509
1481404,0.934,0,0,1,5,0.455,29,510
1481404,1.906,0,0,1,4,0.195,29,511
1481404,1.095,0,1,0,3,0.189,26,512
1481404,1.749,0,0,1,4,0.639,29,513
1481404,0.935,1,1,1,4,0.408,29,514
1481404,0.799,0,0,1,4,0.13,26,515
1481404,0.858,0,0,1,4,0.117,26,516
1481404,0.693,0,0,1,5,0.154,23,517
1481404,0.936,0,0,1,3,0.903,23,518
1481404,0.729,0,0,1,3,0.203,21,519
1481404,0.666,0,0,1,3,0.131,21,520
1481404,0.437,0,0,1,3,0.175,19,521
1481404,1.648,0,1,0,5,0.439,19,522
1481404,0.895,1,0,0,5,0.184,21,523
1481404,0.632,0,0,1,4,0.377,23,524
1481404,0.782,1,1,1,4,0.263,23,525
1481404,0.55,1,1,1,5,0.33,21,526
1854181,1.969,0,1,0,5,3.27,86,27
1854181,1.018,0,1,0,6,1.928,95,28
1854181,0.924,0,0,1,6,2.019,105,29
1854181,0.683,0,0,1,6,1.021,105,30
1854181,1.058,0,1,0,6,1.994,95,31
1854181,0.614,0,0,1,6,1.026,105,32
1854181,0.864,0,1,0,6,1.181,105,33
1854181,1.548,0,1,0,6,1.025,116,34
1854181,0.71,0,0,1,6,1.091,128,35
1854181,1.226,1,1,1,3,8.849,128,36
1854181,1.348,0,1,0,5,2.336,116,37
1854181,1.496,0,1,0,6,0.986,128,38
1854181,0.898,0,1,0,5,1.863,141,39
1854181,0.559,0,0,1,6,1.419,156,40
1854181,0.599,0,0,1,6,0.642,156,41
1854181,1.547,0,1,0,4,0.923,141,42
1854181,0.564,0,0,1,6,0.627,156,43
1854181,0.552,1,1,1,6,1.011,156,44
1854181,0.789,1,1,1,6,0.868,141,45
1854181,1.395,1,1,1,6,0.968,141,46
1854181,1.052,0,0,1,6,1.103,128,47
1854181,0.929,0,0,1,6,0.646,128,48
1854181,0.637,0,0,1,6,0.639,116,49
1854181,0.782,1,1,1,6,0.694,116,50
1854181,1.03,1,1,1,6,1.119,105,51
1854181,0.529,0,0,1,6,1.307,105,52
1854181,0.602,0,0,1,6,0.711,95,53
1854181,0.582,0,0,1,6,0.667,95,54
1854181,0.514,0,0,1,4,1.928,86,55
1854181,1.16,0,1,0,2,2.298,86,56
1854181,0.711,0,0,1,6,0.529,95,57
1854181,0.528,1,1,1,3,1.818,95,58
1854181,0.596,0,0,1,6,0.598,86,59
1854181,2.193,1,1,1,3,2.164,86,60
1854181,1.12,0,0,1,6,0.602,77,61
1854181,1.201,0,0,1,5,6.229,77,62
1854181,3.255,1,1,1,4,2.325,70,63
1854181,1.429,1,1,1,5,1.51,70,64
1854181,1.261,0,0,1,6,1.34,63,65
1854181,0.756,0,0,1,6,0.738,63,66
1854181,1.158,1,1,1,6,1.899,57,67
1854181,0.603,0,0,1,6,1.108,57,68
1854181,1.1,0,1,0,6,0.968,52,69
1854181,1.938,1,1,1,5,1.735,57,70
1854181,1.988,0,0,1,6,1.01,57,71
1854181,10.274,0,1,0,4,1.082,52,72
1854181,1.529,0,1,0,3,1.609,57,73
1854181,1.887,1,1,1,4,1.883,63,74
1854181,0.957,1,1,1,5,0.779,63,75
1854181,0.731,0,0,1,6,0.571,57,76
1854181,1.242,0,1,0,6,0.957,57,77
1854181,0.606,0,1,0,6,1.032,63,78
1854181,0.65,0,0,1,6,0.48,70,79
1854181,0.762,0,0,1,6,0.386,70,80
1854181,0.844,1,1,1,5,1.108,63,81
1854181,0.879,0,0,1,6,0.413,63,82
1854181,0.613,1,1,1,6,0.562,57,83
1854181,0.879,0,1,0,6,0.777,57,84
1854181,0.852,0,0,1,6,0.747,63,85
1854181,0.573,0,1,0,6,1.339,63,86
1854181,1.81,1,1,1,5,0.71,70,87
1854181,0.792,0,1,0,5,0.515,70,88
1854181,0.777,1,1,1,4,3.303,77,89
1854181,0.593,0,0,1,6,1.583,77,90
1854181,0.652,0,0,1,5,0.642,70,91
1854181,2.306,1,1,1,5,7.234,70,92
1854181,13.995,0,0,1,4,0.922,63,93
1854181,0.837,0,1,0,5,0.983,63,94
1854181,1.011,0,1,0,3,5.614,70,95
1854181,0.92,0,1,0,4,0.894,77,96
1854181,0.703,0,0,1,6,0.507,86,97
1854181,0.441,0,0,1,6,0.355,86,98
1854181,0.505,0,0,1,6,0.292,77,99
1854181,0.783,1,1,1,5,1.166,77,100
1854181,1.009,1,1,1,5,0.484,70,101
1854181,0.782,0,0,1,5,0.536,70,102
1854181,1.181,0,0,1,4,1.202,63,103
1854181,0.659,0,0,1,5,0.909,63,104
1854181,0.803,0,0,1,6,0.416,57,105
1854181,1.004,0,1,0,6,0.391,57,106
1854181,0.906,0,0,1,6,0.409,63,107
1854181,0.571,0,1,0,6,0.663,63,108
1854181,0.806,0,0,1,6,0.516,70,109
1854181,1.063,1,1,1,6,0.567,70,110
1854181,0.564,0,0,1,6,0.41,63,111
1854181,0.47,0,0,1,6,0.462,63,112
1854181,0.827,1,1,1,5,0.448,57,113
1854181,1.261,1,1,1,5,0.613,57,114
1854181,0.88,0,0,1,6,1.241,52,115
1854181,0.867,0,0,1,5,0.489,52,116
1854181,0.772,0,1,0,5,0.583,47,117
1854181,0.778,0,0,1,4,3.793,52,118
1854181,0.876,0,1,0,6,0.518,52,119
1854181,1.037,0,1,0,3,0.944,57,120
1854181,0.707,0,0,1,5,1.308,63,121
1854181,1.21,0,1,0,5,0.917,63,122
1854181,1.842,1,1,1,3,2.056,70,123
1854181,1.008,1,1,1,5,0.627,70,124
1854181,1.388,1,1,1,5,0.932,63,125
1854181,2.91,0,0,1,5,0.923,63,126
1854181,2.006,0,1,0,3,3.014,57,127
1854181,1.482,0,1,0,3,0.86,63,128
1854181,0.87,0,0,1,5,0.68,70,129
1854181,0.738,0,0,1,5,0.655,70,130
1854181,4.084,1,1,1,2,1.003,63,131
1854181,0.604,0,0,1,5,0.354,63,132
1854181,1.131,1,1,1,5,0.393,57,133
1854181,1.647,0,1,0,3,0.883,57,134
1854181,0.684,0,0,1,5,0.422,63,135
1854181,2.189,1,1,1,6,0.53,63,136
1854181,1.078,0,1,0,5,0.502,57,137
1854181,1.274,0,1,0,6,0.766,63,138
1854181,0.93,1,1,1,6,1.212,70,139
1854181,0.798,0,0,1,6,0.965,70,140
1854181,0.83,0,0,1,6,0.427,63,141
1854181,1.573,1,1,1,6,1.139,63,142
1854181,0.684,0,0,1,6,0.414,57,143
1854181,0.689,0,1,0,6,0.488,57,144
1854181,0.838,0,1,0,6,0.502,63,145
1854181,1.118,1,1,1,6,0.379,70,146
1854181,0.656,0,0,1,6,0.376,70,147
1854181,0.607,0,0,1,6,0.46,63,148
1854181,0.593,0,0,1,6,0.594,63,149
1854181,0.658,0,1,0,6,0.43,57,150
1854181,0.866,1,1,1,6,0.419,63,151
1854181,0.575,0,0,1,6,0.325,63,152
1854181,0.488,0,0,1,6,0.5,57,153
1854181,0.996,0,0,1,6,0.348,57,154
1854181,0.891,0,0,1,6,0.339,52,155
1854181,0.858,1,1,1,5,0.477,52,156
1854181,0.633,0,0,1,6,0.554,47,157
1854181,1.67,1,1,1,4,0.703,47,158
1854181,0.756,0,0,1,5,0.944,43,159
1854181,2.241,0,1,0,5,0.96,43,160
1854181,0.957,0,0,1,6,0.978,47,161
1854181,0.919,0,0,1,6,0.684,47,162
1854181,1.261,1,1,1,6,0.497,43,163
1854181,0.709,0,1,0,6,0.48,43,164
1854181,1.068,0,0,1,6,0.342,47,165
1854181,0.908,0,0,1,6,0.533,47,166
1854181,1.579,1,1,1,4,1.123,43,167
1854181,0.602,0,0,1,6,0.982,43,168
1854181,0.79,0,1,0,6,0.54,38,169
1854181,1.008,0,1,0,6,0.592,43,170
1854181,0.775,0,0,1,6,0.38,47,171
1854181,1.107,1,1,1,6,0.697,47,172
1854181,0.832,0,1,0,6,0.613,43,173
1854181,1.272,1,1,1,6,0.493,47,174
1854181,0.928,1,1,1,6,0.456,47,175
1854181,0.689,0,0,1,6,0.42,43,176
1854181,1.027,1,1,1,6,0.629,43,177
1854181,0.856,0,1,0,6,0.389,38,178
1854181,0.65,0,0,1,6,0.469,43,179
1854181,0.689,0,0,1,6,0.477,43,180
1854181,0.78,0,1,0,6,0.566,38,181
1854181,0.708,0,0,1,6,0.431,43,182
1854181,0.803,0,1,0,6,0.467,43,183
1854181,0.889,0,1,0,6,0.587,47,184
1854181,1.016,0,0,1,6,0.498,52,185
1854181,3.035,1,1,1,5,1.03,52,186
1854181,1.128,1,1,1,6,0.736,47,187
1854181,1.218,1,1,1,5,0.546,47,188
1854181,2.25,0,1,0,5,0.472,43,189
1854181,0.679,0,0,1,5,0.655,47,190
1854181,0.715,0,0,1,6,0.366,47,191
1854181,1.447,1,1,1,6,0.9,43,192
1854181,0.864,0,0,1,6,0.558,43,193
1854181,1.525,1,1,1,6,0.834,38,194
1854181,0.942,1,1,1,5,0.648,38,195
1854181,1.241,1,1,1,5,1.261,35,196
1854181,0.65,0,0,1,5,0.536,35,197
1854181,1.278,0,0,1,5,0.667,32,198
1854181,4.066,0,0,1,5,0.54,32,199
1854181,1.135,1,1,1,5,1.1,29,200
1854181,1.027,1,1,1,5,1.04,29,201
1854181,0.628,0,0,1,6,0.324,26,202
1854181,0.743,0,0,1,6,0.335,26,203
1854181,0.748,0,0,1,6,0.318,23,204
1854181,0.591,0,0,1,6,0.302,23,205
1854181,1.725,0,1,0,6,0.25,21,206
1854181,1.119,0,0,1,6,0.569,23,207
1854181,2.216,0,1,0,4,0.687,23,208
1854181,1.083,0,0,1,4,0.72,26,209
1854181,1.725,1,1,1,4,0.672,26,210
1854181,0.989,0,0,1,5,0.694,23,211
1854181,0.945,0,0,1,6,0.566,23,212
1854181,0.709,0,1,0,6,0.44,21,213
1854181,0.774,0,1,0,6,0.358,23,214
1854181,0.816,0,0,1,6,0.563,26,215
1854181,0.611,0,0,1,6,0.583,26,216
1854181,0.786,0,1,0,6,0.694,23,217
1854181,0.631,0,0,1,6,0.437,26,218
1854181,0.532,0,1,0,6,0.461,26,219
1854181,0.688,0,1,0,6,0.447,29,220
1854181,0.672,0,0,1,6,0.412,32,221
1854181,1.008,1,1,1,6,0.445,32,222
1854181,0.613,0,1,0,6,0.394,29,223
1854181,0.636,0,1,0,6,0.407,32,224
1854181,0.816,1,1,1,6,0.725,35,225
1854181,0.624,0,0,1,6,0.412,35,226
1854181,2.196,0,1,0,5,1.608,32,227
1854181,1.115,0,1,0,5,6.399,35,228
1854181,0.702,0,0,1,5,0.742,38,229
1854181,0.829,0,0,1,6,0.497,38,230
1854181,1.107,0,1,0,6,0.403,35,231
1854181,0.786,0,0,1,6,0.531,38,232
1854181,1.041,0,1,0,6,0.468,38,233
1854181,1.296,1,1,1,6,0.661,43,234
1854181,0.946,0,0,1,6,0.397,43,235
1854181,1.526,1,1,1,6,0.884,38,236
1854181,1.013,1,1,1,6,0.808,38,237
1854181,1.669,0,1,0,5,0.666,35,238
1854181,1.001,0,1,0,6,0.686,38,239
1854181,1.182,0,0,1,6,0.644,43,240
1854181,0.693,0,0,1,6,0.359,43,241
1854181,0.854,0,1,0,6,0.531,38,242
1854181,0.704,0,0,1,6,0.591,43,243
1854181,0.733,0,1,0,6,0.452,43,244
1854181,1.088,1,1,1,6,0.511,47,245
1854181,0.804,1,1,1,6,0.457,47,246
1854181,0.808,0,0,1,6,0.428,43,247
1854181,0.846,0,0,1,6,0.572,43,248
1854181,0.695,0,0,1,6,0.446,38,249
1854181,0.78,0,1,0,6,0.393,38,250
1854181,1.091,1,1,1,5,0.648,43,251
1854181,0.709,0,0,1,5,0.488,43,252
1854181,0.853,0,0,1,6,0.462,38,253
1854181,0.725,0,0,1,6,0.446,38,254
1854181,0.745,0,0,1,6,0.587,35,255
1854181,1.154,1,1,1,6,1.757,35,256
1854181,0.726,0,0,1,6,0.668,32,257
1854181,1.385,0,1,0,6,1.027,32,258
1854181,0.78,0,0,1,6,0.942,35,259
1854181,0.825,0,1,0,6,1.841,35,260
1854181,0.798,0,0,1,6,0.632,38,261
1854181,1.152,0,0,1,6,0.524,38,262
1854181,0.905,1,1,1,5,0.737,35,263
1854181,0.909,0,1,0,6,0.409,35,264
1854181,0.739,0,0,1,6,0.371,38,265
1854181,0.527,0,0,1,6,0.495,38,266
1854181,0.799,1,1,1,6,0.458,35,267
1854181,1.154,1,0,0,6,0.353,35,268
1854181,0.995,0,1,0,6,2.32,38,269
1854181,1.092,1,1,1,6,0.499,43,270
1854181,0.774,0,0,1,6,0.667,43,271
1854181,0.666,1,1,1,6,2.413,38,272
1854181,0.972,1,1,1,6,1.156,38,273
1854181,0.772,1,1,1,6,0.803,35,274
1854181,0.948,1,1,1,6,1.173,35,275
1854181,1.261,1,0,0,6,0.485,32,276
1854181,0.833,0,1,0,5,0.636,35,277
1854181,0.903,1,1,1,5,0.868,38,278
1854181,1.56,1,0,0,5,1.192,38,279
1854181,1.215,1,0,0,5,1.544,43,280
1854181,0.955,1,1,1,5,0.398,47,281
1854181,0.636,0,0,1,6,0.564,47,282
1854181,0.7,1,1,1,6,0.322,43,283
1854181,0.835,0,1,0,6,0.309,43,284
1854181,0.963,0,0,1,6,0.318,47,285
1854181,1.287,0,1,0,5,0.311,47,286
1854181,1.339,0,1,0,6,0.228,52,287
1854181,2.142,1,1,1,6,0.737,57,288
1854181,1.273,1,1,1,6,0.339,57,289
1854181,0.808,0,0,1,6,0.299,52,290
1854181,0.569,0,0,1,6,0.409,52,291
1854181,0.638,1,1,1,6,0.308,47,292
1854181,0.604,0,0,1,6,0.34,47,293
1854181,0.603,1,1,1,6,0.387,43,294
1854181,0.739,1,1,1,6,0.347,43,295
1854181,0.769,1,1,1,6,0.312,38,296
1854181,0.646,0,0,1,6,0.331,38,297
1854181,1.017,0,0,1,6,0.298,35,298
1854181,0.74,1,0,0,6,0.402,35,299
1854181,0.724,0,1,0,6,0.343,38,300
1854181,0.75,0,1,0,5,1.493,43,301
1854181,0.602,0,0,1,6,0.577,47,302
1854181,1.115,0,0,1,6,0.395,47,303
1854181,0.807,0,0,1,6,0.354,43,304
1854181,0.572,0,0,1,6,0.343,43,305
1854181,0.875,1,1,1,6,0.317,38,306
1854181,0.458,0,0,1,6,1.234,38,307
1854181,1.051,1,1,1,6,0.705,35,308
1854181,4.329,1,0,0,5,0.812,35,309
1854181,0.607,0,1,0,6,0.614,38,310
1854181,0.927,0,0,1,6,2.255,43,311
1854181,0.744,0,0,1,6,0.72,43,312
1854181,1.738,1,1,1,6,0.659,38,313
1854181,0.605,1,1,1,6,0.593,38,314
1854181,0.826,0,0,1,6,0.62,35,315
1854181,0.647,0,0,1,6,0.376,35,316
1854181,0.838,1,1,1,5,0.666,32,317
1854181,0.714,0,0,1,6,0.964,32,318
1854181,1.523,1,1,1,4,0.718,29,319
1854181,1.132,0,1,0,6,0.404,29,320
1854181,0.734,0,0,1,6,0.341,32,321
1854181,1.595,1,1,1,5,0.608,32,322
1854181,1.042,1,1,1,5,0.713,29,323
1854181,0.903,1,1,1,5,0.945,29,324
1854181,0.853,1,1,1,6,0.736,26,325
1854181,1.132,0,0,1,6,0.562,26,326
1854181,0.809,0,1,0,5,0.661,23,327
1854181,0.593,0,1,0,6,0.695,26,328
1854181,0.845,0,0,1,6,0.422,29,329
1854181,0.653,0,0,1,6,0.441,29,330
